Time,AccelerometerX
388.912,-0.333984375
388.922,-0.40673828125
388.932,-0.48876953125
388.942,-0.5556640625
388.952,-0.607421875
388.962,-0.65283203125
388.972,-0.69482421875
388.981,-0.7216796875
388.991,-0.716796875
389.001,-0.67236328125
389.011,-0.5986328125
389.021,-0.5283203125
389.031,-0.495361328125
389.041,-0.5
389.051,-0.51806640625
389.061,-0.53125
389.071,-0.53173828125
389.081,-0.521484375
389.091,-0.5087890625
389.101,-0.50439453125
389.111,-0.5146484375
389.121,-0.5380859375
389.131,-0.5654296875
389.141,-0.5859375
389.151,-0.58642578125
389.161,-0.56201171875
389.171,-0.515625
389.179,-0.466796875
389.189,-0.440185546875
389.199,-0.435302734375
389.209,-0.438720703125
389.219,-0.45556640625
389.229,-0.5029296875
389.239,-0.583984375
389.249,-0.67431640625
389.259,-0.73974609375
389.269,-0.7626953125
389.279,-0.7509765625
389.289,-0.72216796875
389.299,-0.68994140625
389.309,-0.65771484375
389.319,-0.6220703125
389.329,-0.57470703125
389.339,-0.52099609375
389.349,-0.49072265625
389.359,-0.50830078125
389.369,-0.57275390625
389.373,-0.8935546875
389.383,-0.91748046875
389.393,-0.88427734375
389.403,-0.8046875
389.413,-0.73046875
389.423,-0.7138671875
389.433,-0.76318359375
389.443,-0.83642578125
389.453,-0.86669921875
389.463,-0.81298828125
389.473,-0.693359375
389.483,-0.56103515625
389.493,-0.45703125
389.503,-0.39599609375
389.513,-0.3720703125
389.523,-0.3857421875
389.532,-0.452880859375
389.542,-0.578125
389.552,-0.7333984375
389.562,-0.86572265625
389.572,-0.92724609375
389.582,-0.90625
389.592,-0.82470703125
389.602,-0.70263671875
389.612,-0.5556640625
389.622,-0.406982421875
389.632,-0.29248046875
389.642,-0.2440185546875
389.652,-0.270263671875
389.662,-0.352294921875
389.672,-0.448486328125
389.682,-0.5166015625
389.692,-0.546875
389.702,-0.56396484375
389.712,-0.59765625
389.722,-0.65283203125
389.731,-0.697265625
389.741,-0.70654296875
389.751,-0.70703125
389.761,-0.74365234375
389.771,-0.81982421875
389.781,-0.880859375
389.791,-0.869140625
389.801,-0.77783203125
389.811,-0.65576171875
389.821,-0.56103515625
389.831,-0.50439453125
389.841,-0.44873046875
389.851,-0.359130859375
389.861,-0.2406005859375
389.871,-0.1341552734375
389.881,-0.08819580078125
389.891,-0.114990234375
389.901,-0.1820068359375
389.911,-0.251220703125
389.921,-0.308837890625
389.929,-0.359375
389.939,-0.408935546875
389.949,-0.456787109375
389.959,-0.492919921875
389.969,-0.50244140625
389.979,-0.48828125
389.989,-0.45947265625
389.999,-0.418212890625
390.009,-0.37548828125
390.019,-0.3525390625
390.029,-0.361328125
390.039,-0.394775390625
390.049,-0.436279296875
390.059,-0.483642578125
390.069,-0.55712890625
390.079,-0.66357421875
390.089,-0.7607421875
390.099,-0.7919921875
390.109,-0.7587890625
390.119,-0.72216796875
390.123,-0.7587890625
390.133,-0.67041015625
390.143,-0.6298828125
390.153,-0.63720703125
390.163,-0.64453125
390.173,-0.61328125
390.183,-0.55322265625
390.193,-0.50390625
390.203,-0.490478515625
390.213,-0.4990234375
390.223,-0.50390625
390.233,-0.5087890625
390.243,-0.53125
390.253,-0.56591796875
390.263,-0.58154296875
390.273,-0.55859375
390.282,-0.515625
390.292,-0.499755859375
390.302,-0.5380859375
390.312,-0.61865234375
390.322,-0.7041015625
390.332,-0.7626953125
390.342,-0.7900390625
390.352,-0.7998046875
390.362,-0.80517578125
390.372,-0.79541015625
390.382,-0.7353515625
390.392,-0.60400390625
390.402,-0.432861328125
390.412,-0.2802734375
390.422,-0.1868896484375
390.432,-0.1605224609375
390.442,-0.1839599609375
390.452,-0.2410888671875
390.462,-0.336669921875
390.472,-0.4794921875
390.481,-0.650390625
390.491,-0.79736328125
390.501,-0.873046875
390.511,-0.87353515625
390.521,-0.83984375
390.531,-0.8095703125
390.541,-0.77734375
390.551,-0.716796875
390.561,-0.62109375
390.571,-0.50634765625
390.581,-0.39990234375
390.591,-0.328125
390.601,-0.302978515625
390.611,-0.316650390625
390.621,-0.34521484375
390.631,-0.37255859375
390.641,-0.4130859375
390.651,-0.485595703125
390.661,-0.56884765625
390.671,-0.60693359375
390.679,-0.56494140625
390.689,-0.4697265625
390.699,-0.37548828125
390.709,-0.30712890625
390.719,-0.26318359375
390.729,-0.2432861328125
390.739,-0.2578125
390.749,-0.31494140625
390.759,-0.397705078125
390.769,-0.46240234375
390.779,-0.468994140625
390.789,-0.406494140625
390.799,-0.301513671875
390.809,-0.2069091796875
390.819,-0.1688232421875
390.829,-0.19287109375
390.839,-0.250732421875
390.849,-0.32470703125
390.859,-0.42041015625
390.869,-0.53466796875
390.873,-0.58349609375
390.883,-0.5771484375
390.893,-0.59912109375
390.903,-0.619140625
390.913,-0.60205078125
390.923,-0.53662109375
390.933,-0.442626953125
390.943,-0.36083984375
390.953,-0.337890625
390.963,-0.402099609375
390.973,-0.54150390625
390.983,-0.7080078125
390.993,-0.84814453125
391.003,-0.92626953125
391.013,-0.947265625
391.023,-0.95654296875
391.032,-0.98681640625
391.042,-1.0087890625
391.052,-0.970703125
391.062,-0.8701171875
391.072,-0.75390625
391.082,-0.66357421875
391.092,-0.60107421875
391.102,-0.52734375
391.112,-0.40478515625
391.122,-0.25048828125
391.132,-0.1351318359375
391.142,-0.120849609375
391.152,-0.2100830078125
391.162,-0.35205078125
391.172,-0.4853515625
391.182,-0.58056640625
391.192,-0.658203125
391.202,-0.7607421875
391.212,-0.91064453125
391.222,-1.0712890625
391.231,-1.1572265625
391.241,-1.1005859375
391.251,-0.916015625
391.261,-0.68505859375
391.271,-0.499755859375
391.281,-0.409912109375
391.291,-0.4111328125
391.301,-0.45849609375
391.311,-0.48876953125
391.321,-0.451904296875
391.331,-0.340087890625
391.341,-0.1922607421875
391.351,-0.06829833984375
391.361,-0.00878143310546875
391.371,-0.0102615356445312
391.381,-0.046478271484375
391.391,-0.10565185546875
391.401,-0.18896484375
391.411,-0.28466796875
391.421,-0.365234375
391.429,-0.407958984375
391.439,-0.412353515625
391.449,-0.394287109375
391.459,-0.370361328125
391.469,-0.34423828125
391.479,-0.30419921875
391.489,-0.24951171875
391.499,-0.2041015625
391.509,-0.19287109375
391.519,-0.22998046875
391.529,-0.3291015625
391.539,-0.48974609375
391.549,-0.68310546875
391.559,-0.861328125
391.569,-0.9677734375
391.579,-0.9599609375
391.589,-0.84521484375
391.599,-0.68359375
391.609,-0.55224609375
391.619,-0.50390625
391.623,-0.373291015625
391.633,-0.2386474609375
391.643,-0.1434326171875
391.653,-0.10797119140625
391.663,-0.1138916015625
391.673,-0.1209716796875
391.683,-0.10430908203125
391.693,-0.07080078125
391.703,-0.05413818359375
391.713,-0.09564208984375
391.723,-0.2191162109375
391.733,-0.416259765625
391.743,-0.640625
391.753,-0.826171875
391.763,-0.9375
391.773,-0.98876953125
391.782,-1.0009765625
391.792,-0.96923828125
391.802,-0.8671875
391.812,-0.681640625
391.822,-0.4287109375
391.832,-0.1346435546875
391.842,0.179443359375
391.852,0.485107421875
391.862,0.7275390625
391.872,0.83349609375
391.882,0.75048828125
391.892,0.486328125
391.902,0.0941162109375
391.912,-0.351806640625
391.922,-0.75537109375
391.932,-1.01953125
391.942,-1.0849609375
391.952,-0.939453125
391.962,-0.62548828125
391.972,-0.2301025390625
391.98,0.1419677734375
391.99,0.408935546875
392,0.537109375
392.01,0.53125
392.02,0.421142578125
392.03,0.2412109375
392.04,0.0208740234375
392.05,-0.2071533203125
392.06,-0.403564453125
392.07,-0.546875
392.08,-0.642578125
392.09,-0.6953125
392.1,-0.69677734375
392.11,-0.6435546875
392.12,-0.556640625
392.13,-0.469970703125
392.14,-0.406005859375
392.15,-0.3642578125
392.16,-0.332763671875
392.17,-0.303955078125
392.179,-0.296630859375
392.189,-0.350341796875
392.199,-0.475830078125
392.209,-0.62353515625
392.219,-0.7109375
392.229,-0.6806640625
392.239,-0.5341796875
392.249,-0.322021484375
392.259,-0.100830078125
392.269,0.078369140625
392.279,0.174072265625
392.289,0.1632080078125
392.299,0.056243896484375
392.309,-0.102294921875
392.319,-0.275146484375
392.329,-0.460205078125
392.339,-0.66064453125
392.349,-0.849609375
392.359,-0.96875
392.369,-0.97412109375
392.373,-0.334228515625
392.383,-0.27734375
392.393,-0.234375
392.403,-0.1729736328125
392.413,-0.07208251953125
392.423,0.05682373046875
392.433,0.1715087890625
392.443,0.2210693359375
392.453,0.1724853515625
392.463,0.0289306640625
392.473,-0.1700439453125
392.483,-0.369140625
392.493,-0.5361328125
392.503,-0.6767578125
392.513,-0.79833984375
392.523,-0.8818359375
392.532,-0.8994140625
392.542,-0.82861328125
392.552,-0.67333984375
392.562,-0.48291015625
392.572,-0.329345703125
392.582,-0.252197265625
392.592,-0.24462890625
392.602,-0.277099609375
392.612,-0.340087890625
392.622,-0.456298828125
392.632,-0.63134765625
392.642,-0.83251953125
392.652,-1.009765625
392.662,-1.1025390625
392.672,-1.0478515625
392.682,-0.83837890625
392.692,-0.533203125
392.702,-0.23095703125
392.712,-0.0303192138671875
392.722,0.00893402099609375
392.73,-0.11083984375
392.74,-0.333740234375
392.75,-0.58056640625
392.76,-0.775390625
392.77,-0.87646484375
392.78,-0.8984375
392.79,-0.89208984375
392.8,-0.8896484375
392.81,-0.88525390625
392.82,-0.83740234375
392.83,-0.69384765625
392.84,-0.45361328125
392.85,-0.1817626953125
392.86,0.04974365234375
392.87,0.2022705078125
392.88,0.267822265625
392.89,0.26318359375
392.9,0.2213134765625
392.91,0.1671142578125
392.92,0.0948486328125
392.929,-0.0276947021484375
392.939,-0.2236328125
392.949,-0.47021484375
392.959,-0.69580078125
392.969,-0.8173828125
392.979,-0.79833984375
392.989,-0.67626953125
392.999,-0.53125
393.009,-0.42529296875
393.019,-0.3837890625
393.029,-0.4013671875
393.039,-0.450927734375
393.049,-0.501953125
393.059,-0.53759765625
393.069,-0.5595703125
393.079,-0.5869140625
393.089,-0.64794921875
393.099,-0.74169921875
393.109,-0.81494140625
393.119,-0.80810546875
393.123,-0.341552734375
393.133,-0.40673828125
393.143,-0.52978515625
393.153,-0.64990234375
393.163,-0.71337890625
393.173,-0.71728515625
393.183,-0.69580078125
393.193,-0.671875
393.203,-0.62548828125
393.213,-0.52734375
393.223,-0.38525390625
393.233,-0.2381591796875
393.243,-0.1263427734375
393.253,-0.070068359375
393.263,-0.07159423828125
393.273,-0.1259765625
393.282,-0.2149658203125
393.292,-0.31591796875
393.302,-0.418212890625
393.312,-0.5234375
393.322,-0.6474609375
393.332,-0.78662109375
393.342,-0.88818359375
393.352,-0.890625
393.362,-0.7802734375
393.372,-0.57861328125
393.382,-0.322265625
393.392,-0.0726318359375
393.402,0.0872802734375
393.412,0.10693359375
393.422,0.0132980346679688
393.432,-0.12445068359375
393.442,-0.2454833984375
393.452,-0.307861328125
393.462,-0.292724609375
393.472,-0.212158203125
393.48,-0.1070556640625
393.49,-0.0196990966796875
393.5,0.032623291015625
393.51,0.052703857421875
393.52,0.043731689453125
393.53,-0.000374078750610352
393.54,-0.09466552734375
393.55,-0.240966796875
393.56,-0.40478515625
393.57,-0.53076171875
393.58,-0.576171875
393.59,-0.53173828125
393.6,-0.430419921875
393.61,-0.318359375
393.62,-0.2230224609375
393.63,-0.1514892578125
393.64,-0.10882568359375
393.65,-0.10748291015625
393.66,-0.1546630859375
393.67,-0.2376708984375
393.679,-0.32666015625
393.689,-0.38623046875
393.699,-0.394775390625
393.709,-0.359375
393.719,-0.300048828125
393.729,-0.236328125
393.739,-0.1802978515625
393.749,-0.1328125
393.759,-0.0977783203125
393.769,-0.100341796875
393.779,-0.172119140625
393.789,-0.314453125
393.799,-0.487060546875
393.809,-0.6357421875
393.819,-0.71826171875
393.829,-0.712890625
393.839,-0.6328125
393.849,-0.5029296875
393.859,-0.33984375
393.869,-0.178466796875
393.873,-0.30419921875
393.883,-0.4833984375
393.893,-0.6552734375
393.903,-0.7734375
393.913,-0.8203125
393.923,-0.8154296875
393.933,-0.78271484375
393.943,-0.73193359375
393.953,-0.69580078125
393.963,-0.7138671875
393.973,-0.78564453125
393.983,-0.86962890625
393.993,-0.90185546875
394.003,-0.8369140625
394.013,-0.69091796875
394.023,-0.50439453125
394.032,-0.31005859375
394.042,-0.1370849609375
394.052,-0.00326728820800781
394.062,0.07733154296875
394.072,0.0823974609375
394.082,0.00375556945800781
394.092,-0.146240234375
394.102,-0.350341796875
394.112,-0.58544921875
394.122,-0.814453125
394.132,-0.99072265625
394.142,-1.0791015625
394.152,-1.068359375
394.162,-0.962890625
394.172,-0.78271484375
394.182,-0.57568359375
394.192,-0.412841796875
394.202,-0.341064453125
394.212,-0.3544921875
394.222,-0.41064453125
394.23,-0.44873046875
394.24,-0.4228515625
394.25,-0.33154296875
394.26,-0.2176513671875
394.27,-0.14208984375
394.28,-0.1385498046875
394.29,-0.2025146484375
394.3,-0.322021484375
394.31,-0.486572265625
394.32,-0.6689453125
394.33,-0.80908203125
394.34,-0.8447265625
394.35,-0.7626953125
394.36,-0.60302734375
394.37,-0.423583984375
394.38,-0.274169921875
394.39,-0.1710205078125
394.4,-0.10009765625
394.41,-0.050201416015625
394.42,-0.0216217041015625
394.429,-0.0302581787109375
394.439,-0.1014404296875
394.449,-0.239990234375
394.459,-0.417236328125
394.469,-0.59423828125
394.479,-0.759765625
394.489,-0.9267578125
394.499,-1.080078125
394.509,-1.1630859375
394.519,-1.1298828125
394.529,-1
394.539,-0.82861328125
394.549,-0.66650390625
394.559,-0.53955078125
394.569,-0.46044921875
394.579,-0.42822265625
394.589,-0.447998046875
394.599,-0.53515625
394.609,-0.685546875
394.619,-0.84716796875
394.623,-0.6904296875
394.633,-0.65380859375
394.643,-0.61962890625
394.653,-0.56689453125
394.663,-0.513671875
394.673,-0.486572265625
394.683,-0.48876953125
394.693,-0.5
394.703,-0.494384765625
394.713,-0.4658203125
394.723,-0.425537109375
394.733,-0.393798828125
394.743,-0.385498046875
394.753,-0.3935546875
394.763,-0.394775390625
394.773,-0.38232421875
394.782,-0.375244140625
394.792,-0.391845703125
394.802,-0.42529296875
394.812,-0.46337890625
394.822,-0.51416015625
394.832,-0.58447265625
394.842,-0.6552734375
394.852,-0.68603515625
394.862,-0.65087890625
394.872,-0.58349609375
394.882,-0.55859375
394.892,-0.6240234375
394.902,-0.75439453125
394.912,-0.86181640625
394.922,-0.85595703125
394.932,-0.71142578125
394.942,-0.485107421875
394.952,-0.276123046875
394.962,-0.1641845703125
394.972,-0.164794921875
394.98,-0.233154296875
394.99,-0.304443359375
395,-0.353271484375
395.01,-0.41845703125
395.02,-0.552734375
395.03,-0.75390625
395.04,-0.94482421875
395.05,-1.0166015625
395.06,-0.916015625
395.07,-0.69482421875
395.08,-0.473388671875
395.09,-0.353271484375
395.1,-0.357666015625
395.11,-0.431640625
395.12,-0.48193359375
395.13,-0.432861328125
395.14,-0.26708984375
395.15,-0.033599853515625
395.16,0.1788330078125
395.17,0.275146484375
395.179,0.18994140625
395.189,-0.073486328125
395.199,-0.427490234375
395.209,-0.732421875
395.219,-0.8671875
395.229,-0.78662109375
395.239,-0.546875
395.249,-0.276611328125
395.259,-0.11224365234375
395.269,-0.1282958984375
395.279,-0.303466796875
395.289,-0.53759765625
395.299,-0.7177734375
395.309,-0.78076171875
395.319,-0.7431640625
395.329,-0.67578125
395.339,-0.6591796875
395.349,-0.7353515625
395.359,-0.896484375
395.369,-1.099609375
395.373,-0.95751953125
395.383,-0.6328125
395.393,-0.36669921875
395.403,-0.255615234375
395.413,-0.356689453125
395.423,-0.65771484375
395.433,-1.0810546875
395.443,-1.5146484375
395.453,-1.8564453125
395.463,-2.044921875
395.473,-2.076171875
395.483,-1.9853515625
395.493,-1.8359375
395.503,-1.6875
395.513,-1.5810546875
395.523,-1.5322265625
395.532,-1.5322265625
395.542,-1.5595703125
395.552,-1.5908203125
395.562,-1.6123046875
395.572,-1.62109375
395.582,-1.615234375
395.592,-1.59375
395.602,-1.556640625
395.612,-1.5009765625
395.622,-1.4111328125
395.632,-1.2763671875
395.642,-1.09765625
395.652,-0.8876953125
395.662,-0.67431640625
395.672,-0.496337890625
395.682,-0.38818359375
395.692,-0.3681640625
395.702,-0.4345703125
395.712,-0.57275390625
395.722,-0.74853515625
395.73,-0.904296875
395.74,-0.98779296875
395.75,-0.97509765625
395.76,-0.8759765625
395.77,-0.72314453125
395.78,-0.56005859375
395.79,-0.421630859375
395.8,-0.331298828125
395.81,-0.30908203125
395.82,-0.364501953125
395.83,-0.482177734375
395.84,-0.6298828125
395.85,-0.77978515625
395.86,-0.91357421875
395.87,-1.0185546875
395.88,-1.0849609375
395.89,-1.099609375
395.9,-1.0595703125
395.91,-0.9814453125
395.92,-0.892578125
395.929,-0.82958984375
395.939,-0.818359375
395.949,-0.85595703125
395.959,-0.91015625
395.969,-0.9501953125
395.979,-0.9658203125
395.989,-0.9658203125
395.999,-0.96435546875
396.009,-0.96728515625
396.019,-0.9677734375
396.029,-0.9541015625
396.039,-0.91845703125
396.049,-0.85791015625
396.059,-0.7861328125
396.069,-0.73046875
396.079,-0.7158203125
396.089,-0.74951171875
396.099,-0.81298828125
396.109,-0.86669921875
396.119,-0.873046875
396.123,-0.69482421875
396.133,-0.69384765625
396.143,-0.65869140625
396.153,-0.59375
396.163,-0.529296875
396.173,-0.50341796875
396.183,-0.5283203125
396.193,-0.58544921875
396.203,-0.6552734375
396.213,-0.7353515625
396.223,-0.8271484375
396.233,-0.91259765625
396.243,-0.9580078125
396.253,-0.94775390625
396.263,-0.8935546875
396.273,-0.8173828125
396.281,-0.7373046875
396.291,-0.67041015625
396.301,-0.634765625
396.311,-0.63427734375
396.321,-0.6552734375
396.331,-0.68896484375
396.341,-0.73486328125
396.351,-0.794921875
396.361,-0.8642578125
396.371,-0.92529296875
396.381,-0.953125
396.391,-0.93896484375
396.401,-0.8896484375
396.411,-0.8154296875
396.421,-0.73583984375
396.431,-0.67822265625
396.441,-0.65673828125
396.451,-0.66552734375
396.461,-0.6943359375
396.471,-0.734375
396.48,-0.77197265625
396.49,-0.79833984375
396.5,-0.8076171875
396.51,-0.79736328125
396.52,-0.771484375
396.53,-0.73974609375
396.54,-0.71533203125
396.55,-0.70849609375
396.56,-0.72021484375
396.57,-0.7451171875
396.58,-0.77685546875
396.59,-0.8095703125
396.6,-0.83642578125
396.61,-0.853515625
396.62,-0.85595703125
396.63,-0.83984375
396.64,-0.80859375
396.65,-0.76904296875
396.66,-0.73095703125
396.67,-0.70361328125
396.679,-0.6953125
396.689,-0.70751953125
396.699,-0.73779296875
396.709,-0.77978515625
396.719,-0.82177734375
396.729,-0.84814453125
396.739,-0.84814453125
396.749,-0.81982421875
396.759,-0.7724609375
396.769,-0.720703125
396.779,-0.67822265625
396.789,-0.65234375
396.799,-0.64453125
396.809,-0.65234375
396.819,-0.67333984375
396.829,-0.70166015625
396.839,-0.7314453125
396.849,-0.7646484375
396.859,-0.8046875
396.869,-0.84375
396.873,-0.70751953125
396.883,-0.6240234375
396.893,-0.53125
396.903,-0.443359375
396.913,-0.382080078125
396.923,-0.36083984375
396.933,-0.37841796875
396.943,-0.421875
396.953,-0.47607421875
396.963,-0.5322265625
396.973,-0.58935546875
396.983,-0.642578125
396.993,-0.68359375
397.003,-0.70849609375
397.013,-0.7236328125
397.023,-0.73583984375
397.031,-0.74365234375
397.041,-0.7421875
397.051,-0.73583984375
397.061,-0.7333984375
397.071,-0.73828125
397.081,-0.74853515625
397.091,-0.751953125
397.101,-0.73974609375
397.111,-0.712890625
397.121,-0.6787109375
397.131,-0.64013671875
397.141,-0.59912109375
397.151,-0.556640625
397.161,-0.5126953125
397.171,-0.46923828125
397.181,-0.435546875
397.191,-0.422607421875
397.201,-0.435546875
397.211,-0.474365234375
397.221,-0.533203125
397.23,-0.60302734375
397.24,-0.6728515625
397.25,-0.72998046875
397.26,-0.75732421875
397.27,-0.7431640625
397.28,-0.69580078125
397.29,-0.63232421875
397.3,-0.56396484375
397.31,-0.5087890625
397.32,-0.487548828125
397.33,-0.50634765625
397.34,-0.54931640625
397.35,-0.5927734375
397.36,-0.619140625
397.37,-0.615234375
397.38,-0.57666015625
397.39,-0.51171875
397.4,-0.433837890625
397.41,-0.355224609375
397.42,-0.28564453125
397.429,-0.224609375
397.439,-0.1710205078125
397.449,-0.1346435546875
397.459,-0.12841796875
397.469,-0.154296875
397.479,-0.2052001953125
397.489,-0.26904296875
397.499,-0.32080078125
397.509,-0.32958984375
397.519,-0.287109375
397.529,-0.2076416015625
397.539,-0.1068115234375
397.549,-0.00936126708984375
397.559,0.057647705078125
397.569,0.09930419921875
397.579,0.1448974609375
397.589,0.2005615234375
397.599,0.2476806640625
397.609,0.269775390625
397.619,0.248046875
397.623,-0.43359375
397.633,-0.5517578125
397.643,-0.62939453125
397.653,-0.65576171875
397.663,-0.619140625
397.673,-0.52490234375
397.683,-0.40234375
397.693,-0.285888671875
397.703,-0.1968994140625
397.713,-0.14697265625
397.723,-0.1298828125
397.733,-0.11614990234375
397.743,-0.079833984375
397.753,-0.0136947631835938
397.763,0.0771484375
397.773,0.1781005859375
397.781,0.263916015625
397.791,0.303955078125
397.801,0.283447265625
397.811,0.214599609375
397.821,0.1199951171875
397.831,0.02471923828125
397.841,-0.047088623046875
397.851,-0.08355712890625
397.861,-0.0892333984375
397.871,-0.07470703125
397.881,-0.05023193359375
397.891,-0.0265350341796875
397.901,-0.0111846923828125
397.911,-0.00474166870117188
397.921,-0.00201034545898438
397.931,0.00798797607421875
397.941,0.0379638671875
397.951,0.0916748046875
397.961,0.1583251953125
397.971,0.2152099609375
397.98,0.2396240234375
397.99,0.2225341796875
398,0.169677734375
398.01,0.09527587890625
398.02,0.02081298828125
398.03,-0.031951904296875
398.04,-0.049163818359375
398.05,-0.0267181396484375
398.06,0.030181884765625
398.07,0.107666015625
398.08,0.186279296875
398.09,0.24853515625
398.1,0.28564453125
398.11,0.2939453125
398.12,0.265625
398.13,0.193603515625
398.14,0.083984375
398.15,-0.0419921875
398.16,-0.156494140625
398.17,-0.239013671875
398.179,-0.28076171875
398.189,-0.27734375
398.199,-0.2296142578125
398.209,-0.1536865234375
398.219,-0.072509765625
398.229,-0.0041961669921875
398.239,0.03765869140625
398.249,0.0419921875
398.259,0.00997161865234375
398.269,-0.03936767578125
398.279,-0.08258056640625
398.289,-0.1038818359375
398.299,-0.094970703125
398.309,-0.057373046875
398.319,-0.00469589233398438
398.329,0.04412841796875
398.339,0.0718994140625
398.349,0.067626953125
398.359,0.0316162109375
398.369,-0.02294921875
398.373,-0.205322265625
398.383,-0.199462890625
398.393,-0.15869140625
398.403,-0.08843994140625
398.413,-0.00184535980224609
398.423,0.082763671875
398.433,0.144775390625
398.443,0.168701171875
398.453,0.1485595703125
398.463,0.089599609375
398.473,0.00662612915039062
398.483,-0.0780029296875
398.493,-0.1419677734375
398.503,-0.173583984375
398.513,-0.17041015625
398.523,-0.13232421875
398.531,-0.0672607421875
398.541,0.0046539306640625
398.551,0.0611572265625
398.561,0.08782958984375
398.571,0.0831298828125
398.581,0.057373046875
398.591,0.0210113525390625
398.601,-0.0182952880859375
398.611,-0.051666259765625
398.621,-0.07342529296875
398.631,-0.08355712890625
398.641,-0.0811767578125
398.651,-0.0625
398.661,-0.0297088623046875
398.671,0.0077972412109375
398.681,0.04248046875
398.691,0.06939697265625
398.701,0.08038330078125
398.711,0.0677490234375
398.721,0.034576416015625
398.73,-0.00458145141601562
398.74,-0.036895751953125
398.75,-0.057861328125
398.76,-0.0675048828125
398.77,-0.0692138671875
398.78,-0.06817626953125
398.79,-0.065673828125
398.8,-0.056640625
398.81,-0.035247802734375
398.82,-0.00216865539550781
398.83,0.039031982421875
398.84,0.085693359375
398.85,0.1304931640625
398.86,0.162353515625
398.87,0.1729736328125
398.88,0.1578369140625
398.89,0.117919921875
398.9,0.059112548828125
398.91,-0.0093841552734375
398.92,-0.076171875
398.929,-0.1302490234375
398.939,-0.1654052734375
398.949,-0.1795654296875
398.959,-0.171630859375
398.969,-0.139892578125
398.979,-0.08282470703125
398.989,-0.00560379028320312
398.999,0.0799560546875
399.009,0.1607666015625
399.019,0.22265625
399.029,0.25390625
399.039,0.252197265625
399.049,0.2203369140625
399.059,0.161865234375
399.069,0.08612060546875
399.079,0.0058441162109375
399.089,-0.06982421875
399.099,-0.133056640625
399.109,-0.1741943359375
399.119,-0.186279296875
399.123,0.07000732421875
399.133,0.1256103515625
399.143,0.156982421875
399.153,0.1578369140625
399.163,0.1268310546875
399.173,0.072998046875
399.183,0.0136642456054688
399.193,-0.03875732421875
399.203,-0.08087158203125
399.213,-0.11065673828125
399.223,-0.126953125
399.233,-0.131591796875
399.243,-0.1231689453125
399.253,-0.097900390625
399.263,-0.062347412109375
399.273,-0.0301513671875
399.281,-0.0093994140625
399.291,-0.000900745391845703
399.301,-0.00391006469726562
399.311,-0.0135879516601562
399.321,-0.02178955078125
399.331,-0.0304107666015625
399.341,-0.050018310546875
399.351,-0.08221435546875
399.361,-0.11956787109375
399.371,-0.1573486328125
399.381,-0.1893310546875
399.391,-0.203125
399.401,-0.189453125
399.411,-0.15087890625
399.421,-0.09521484375
399.431,-0.032073974609375
399.441,0.0227813720703125
399.451,0.054229736328125
399.461,0.06097412109375
399.471,0.0526123046875
399.48,0.03778076171875
399.49,0.0190277099609375
399.5,-0.00424575805664062
399.51,-0.03289794921875
399.52,-0.0699462890625
399.53,-0.114990234375
399.54,-0.1571044921875
399.55,-0.1800537109375
399.56,-0.172119140625
399.57,-0.134765625
399.58,-0.08648681640625
399.59,-0.05523681640625
399.6,-0.05810546875
399.61,-0.0882568359375
399.62,-0.1173095703125
399.63,-0.11273193359375
399.64,-0.061676025390625
399.65,0.0181121826171875
399.66,0.09521484375
399.67,0.1480712890625
399.679,0.16845703125
399.689,0.15087890625
399.699,0.09173583984375
399.709,-0.00485610961914062
399.719,-0.124267578125
399.729,-0.2435302734375
399.739,-0.3408203125
399.749,-0.4033203125
399.759,-0.419189453125
399.769,-0.37158203125
399.779,-0.25244140625
399.789,-0.08282470703125
399.799,0.087646484375
399.809,0.2099609375
399.819,0.258544921875
399.829,0.2318115234375
399.839,0.14208984375
399.849,0.0092315673828125
399.859,-0.1419677734375
399.869,-0.28466796875
399.873,-0.499755859375
399.883,-0.406982421875
399.893,-0.283935546875
399.903,-0.1669921875
399.913,-0.0849609375
399.923,-0.037872314453125
399.933,-0.00559616088867188
399.943,0.0230560302734375
399.953,0.039520263671875
399.963,0.03204345703125
399.973,0.0042724609375
399.983,-0.0286712646484375
399.993,-0.061248779296875
400.003,-0.10333251953125
400.013,-0.165771484375
400.023,-0.248046875
400.031,-0.3349609375
400.041,-0.3984375
400.051,-0.414794921875
400.061,-0.380615234375
400.071,-0.309814453125
400.081,-0.2210693359375
400.091,-0.128662109375
400.101,-0.04510498046875
400.111,0.012298583984375
400.121,0.024993896484375
400.131,-0.00966644287109375
400.141,-0.07470703125
400.151,-0.1488037109375
400.161,-0.2147216796875
400.171,-0.25634765625
400.181,-0.26318359375
400.191,-0.24609375
400.201,-0.2308349609375
400.211,-0.2325439453125
400.221,-0.246337890625
400.23,-0.259765625
400.24,-0.262451171875
400.25,-0.2489013671875
400.26,-0.2244873046875
400.27,-0.2069091796875
400.28,-0.20947265625
400.29,-0.22509765625
400.3,-0.23486328125
400.31,-0.229248046875
400.32,-0.21435546875
400.33,-0.2047119140625
400.34,-0.212158203125
400.35,-0.2349853515625
400.36,-0.26123046875
400.37,-0.28271484375
400.38,-0.299072265625
400.39,-0.313232421875
400.4,-0.3291015625
400.41,-0.3515625
400.42,-0.37646484375
400.424,-0.019439697265625
400.434,0.05224609375
400.444,0.037994384765625
400.454,-0.0631103515625
400.464,-0.2144775390625
400.474,-0.359375
400.484,-0.444091796875
400.494,-0.439208984375
400.504,-0.350830078125
400.514,-0.2105712890625
400.524,-0.06475830078125
400.534,0.03289794921875
400.544,0.045684814453125
400.554,-0.0306243896484375
400.564,-0.1763916015625
400.574,-0.35498046875
400.582,-0.5185546875
400.592,-0.6240234375
400.602,-0.6357421875
400.612,-0.53759765625
400.622,-0.348876953125
400.632,-0.1170654296875
400.642,0.104248046875
400.652,0.26171875
400.662,0.320068359375
400.672,0.280029296875
400.682,0.169189453125
400.692,0.0187835693359375
400.702,-0.1435546875
400.712,-0.29736328125
400.722,-0.42919921875
400.732,-0.52880859375
400.742,-0.59619140625
400.752,-0.64013671875
400.762,-0.66650390625
400.772,-0.67431640625
400.781,-0.658203125
400.791,-0.6064453125
400.801,-0.51123046875
400.811,-0.3759765625
400.821,-0.212646484375
400.831,-0.044769287109375
400.841,0.09454345703125
400.851,0.18408203125
400.861,0.2216796875
400.871,0.2169189453125
400.881,0.1888427734375
400.891,0.15576171875
400.901,0.127685546875
400.911,0.11370849609375
400.921,0.11737060546875
400.931,0.126708984375
400.941,0.1226806640625
400.951,0.0858154296875
400.961,-0.00107765197753906
400.971,-0.1429443359375
400.98,-0.325927734375
400.99,-0.52197265625
401,-0.69140625
401.01,-0.79638671875
401.02,-0.81884765625
401.03,-0.76220703125
401.04,-0.658203125
401.05,-0.564453125
401.06,-0.53125
401.07,-0.57275390625
401.08,-0.67138671875
401.09,-0.802734375
401.1,-0.939453125
401.11,-1.05078125
401.12,-1.107421875
401.13,-1.0966796875
401.14,-1.04296875
401.15,-0.98388671875
401.16,-0.94140625
401.17,-0.919921875
401.174,-1.1044921875
401.184,-1.126953125
401.194,-1.1103515625
401.204,-1.0439453125
401.214,-0.93701171875
401.224,-0.81787109375
401.234,-0.712890625
401.244,-0.6455078125
401.254,-0.63427734375
401.264,-0.6787109375
401.274,-0.75634765625
401.284,-0.841796875
401.294,-0.91650390625
401.304,-0.96435546875
401.314,-0.97314453125
401.324,-0.951171875
401.332,-0.919921875
401.342,-0.89697265625
401.352,-0.890625
401.362,-0.90576171875
401.372,-0.93701171875
401.382,-0.9716796875
401.392,-0.998046875
401.402,-1.001953125
401.412,-0.9716796875
401.422,-0.9140625
401.432,-0.8505859375
401.442,-0.79736328125
401.452,-0.76806640625
401.462,-0.76806640625
401.472,-0.79052734375
401.482,-0.826171875
401.492,-0.8681640625
401.502,-0.9072265625
401.512,-0.9345703125
401.522,-0.94189453125
401.531,-0.9189453125
401.541,-0.86279296875
401.551,-0.79345703125
401.561,-0.73779296875
401.571,-0.70751953125
401.581,-0.70263671875
401.591,-0.716796875
401.601,-0.73828125
401.611,-0.76171875
401.621,-0.79052734375
401.631,-0.828125
401.641,-0.87109375
401.651,-0.9111328125
401.661,-0.94091796875
401.671,-0.95556640625
401.681,-0.95654296875
401.691,-0.94580078125
401.701,-0.92138671875
401.711,-0.88330078125
401.721,-0.83935546875
401.73,-0.80419921875
401.74,-0.791015625
401.75,-0.80322265625
401.76,-0.82861328125
401.77,-0.8466796875
401.78,-0.84619140625
401.79,-0.8291015625
401.8,-0.80029296875
401.81,-0.767578125
401.82,-0.74560546875
401.83,-0.73681640625
401.84,-0.72900390625
401.85,-0.705078125
401.86,-0.6640625
401.87,-0.6181640625
401.88,-0.5810546875
401.89,-0.5615234375
401.9,-0.56787109375
401.91,-0.6044921875
401.92,-0.6640625
401.924,-0.81201171875
401.934,-0.794921875
401.944,-0.77001953125
401.954,-0.73486328125
401.964,-0.689453125
401.974,-0.63623046875
401.984,-0.57275390625
401.994,-0.5
402.004,-0.43115234375
402.014,-0.38671875
402.024,-0.37841796875
402.034,-0.40478515625
402.044,-0.455322265625
402.054,-0.51318359375
402.064,-0.5673828125
402.074,-0.61865234375
402.082,-0.669921875
402.092,-0.71484375
402.102,-0.73974609375
402.112,-0.73291015625
402.122,-0.69384765625
402.132,-0.63134765625
402.142,-0.56103515625
402.152,-0.5
402.162,-0.454833984375
402.172,-0.416748046875
402.182,-0.375244140625
402.192,-0.330078125
402.202,-0.28515625
402.212,-0.2379150390625
402.222,-0.1744384765625
402.232,-0.0823974609375
402.242,0.033294677734375
402.252,0.152587890625
402.262,0.2607421875
402.272,0.353515625
402.281,0.428955078125
402.291,0.481201171875
402.301,0.50048828125
402.311,0.477294921875
402.321,0.40771484375
402.331,0.302734375
402.341,0.18359375
402.351,0.0692138671875
402.361,-0.030242919921875
402.371,-0.1087646484375
402.381,-0.1544189453125
402.391,-0.151123046875
402.401,-0.0948486328125
402.411,-0.00252532958984375
402.421,0.0958251953125
402.431,0.1669921875
402.441,0.1885986328125
402.451,0.1617431640625
402.461,0.10467529296875
402.471,0.03802490234375
402.48,-0.0240478515625
402.49,-0.07525634765625
402.5,-0.1156005859375
402.51,-0.1463623046875
402.52,-0.166259765625
402.53,-0.173095703125
402.54,-0.1695556640625
402.55,-0.16259765625
402.56,-0.1593017578125
402.57,-0.16796875
402.58,-0.1927490234375
402.59,-0.22509765625
402.6,-0.242919921875
402.61,-0.2237548828125
402.62,-0.16162109375
402.63,-0.07110595703125
402.64,0.0244903564453125
402.65,0.1063232421875
402.66,0.16357421875
402.67,0.1920166015625
402.675,-0.038299560546875
402.685,-0.1129150390625
402.695,-0.1702880859375
402.705,-0.205322265625
402.715,-0.211181640625
402.725,-0.1878662109375
402.735,-0.1478271484375
402.745,-0.104736328125
402.755,-0.0650634765625
402.765,-0.032806396484375
402.775,-0.0127716064453125
402.785,-0.00525283813476562
402.795,0.000178098678588867
402.805,0.021484375
402.815,0.07061767578125
402.825,0.1485595703125
402.832,0.2486572265625
402.842,0.34912109375
402.852,0.41650390625
402.862,0.42626953125
402.872,0.373291015625
402.882,0.266357421875
402.892,0.11907958984375
402.902,-0.048736572265625
402.912,-0.20166015625
402.922,-0.30322265625
402.932,-0.344482421875
402.942,-0.342041015625
402.952,-0.318115234375
402.962,-0.289794921875
402.972,-0.263427734375
402.982,-0.2320556640625
402.992,-0.1888427734375
403.002,-0.1339111328125
403.012,-0.0697021484375
403.022,-0.000446319580078125
403.031,0.067626953125
403.041,0.1263427734375
403.051,0.16015625
403.061,0.1456298828125
403.071,0.06756591796875
403.081,-0.0606689453125
403.091,-0.2015380859375
403.101,-0.31640625
403.111,-0.381591796875
403.121,-0.387939453125
403.131,-0.337158203125
403.141,-0.2457275390625
403.151,-0.13623046875
403.161,-0.0244140625
403.171,0.07635498046875
403.181,0.157470703125
403.191,0.2208251953125
403.201,0.268310546875
403.211,0.294921875
403.221,0.29541015625
403.23,0.263671875
403.24,0.1939697265625
403.25,0.08740234375
403.26,-0.046844482421875
403.27,-0.198486328125
403.28,-0.353759765625
403.29,-0.489013671875
403.3,-0.5751953125
403.31,-0.59130859375
403.32,-0.53515625
403.33,-0.431884765625
403.34,-0.313232421875
403.35,-0.1983642578125
403.36,-0.093017578125
403.37,0.00334358215332031
403.38,0.0908203125
403.39,0.1622314453125
403.4,0.2091064453125
403.41,0.229736328125
403.42,0.220703125
403.424,-0.223876953125
403.434,-0.295166015625
403.444,-0.3232421875
403.454,-0.286376953125
403.464,-0.1871337890625
403.474,-0.05645751953125
403.484,0.07415771484375
403.494,0.18212890625
403.504,0.2469482421875
403.514,0.26025390625
403.524,0.2337646484375
403.534,0.1832275390625
403.544,0.1214599609375
403.554,0.0589599609375
403.564,3.43918800354004e-05
403.574,-0.05419921875
403.582,-0.095947265625
403.592,-0.11041259765625
403.602,-0.09002685546875
403.612,-0.04327392578125
403.622,0.01446533203125
403.632,0.06976318359375
403.642,0.1053466796875
403.652,0.1046142578125
403.662,0.0670166015625
403.672,0.00523757934570312
403.682,-0.06561279296875
403.692,-0.1290283203125
403.702,-0.1673583984375
403.712,-0.1685791015625
403.722,-0.1328125
403.732,-0.06585693359375
403.742,0.0220794677734375
403.752,0.10589599609375
403.762,0.1566162109375
403.772,0.170166015625
403.781,0.1617431640625
403.791,0.1356201171875
403.801,0.08740234375
403.811,0.0221710205078125
403.821,-0.0498046875
403.831,-0.12237548828125
403.841,-0.1806640625
403.851,-0.1966552734375
403.861,-0.1566162109375
403.871,-0.08013916015625
403.881,7.62939453125e-05
403.891,0.060394287109375
403.901,0.07958984375
403.911,0.042694091796875
403.921,-0.0362548828125
403.931,-0.12066650390625
403.941,-0.18212890625
403.951,-0.208740234375
403.961,-0.1942138671875
403.971,-0.142333984375
403.98,-0.0765380859375
403.99,-0.031005859375
404,-0.0240631103515625
404.01,-0.049072265625
404.02,-0.1080322265625
404.03,-0.23095703125
404.04,-0.425048828125
404.05,-0.63818359375
404.06,-0.78662109375
404.07,-0.79052734375
404.08,-0.60888671875
404.09,-0.2734375
404.1,0.13818359375
404.11,0.52001953125
404.12,0.74072265625
404.13,0.69921875
404.14,0.41455078125
404.15,0.014678955078125
404.16,-0.383544921875
404.17,-0.72998046875
404.173,-1.31640625
404.183,-1.2529296875
404.193,-1.005859375
404.203,-0.57568359375
404.213,-0.06036376953125
404.223,0.38720703125
404.233,0.63427734375
404.243,0.66357421875
404.253,0.609375
404.263,0.63232421875
404.273,0.76318359375
404.283,0.92919921875
404.293,1.0576171875
404.303,1.0966796875
404.313,1.0107421875
404.323,0.814453125
404.332,0.57373046875
404.342,0.360595703125
404.352,0.2115478515625
404.362,0.1365966796875
404.372,0.11993408203125
404.382,0.11566162109375
404.392,0.06634521484375
404.402,-0.057708740234375
404.412,-0.2342529296875
404.422,-0.41455078125
404.432,-0.55615234375
404.442,-0.63916015625
404.452,-0.67041015625
404.462,-0.67041015625
404.472,-0.6357421875
404.482,-0.53125
404.492,-0.35498046875
404.502,-0.17822265625
404.512,-0.1024169921875
404.522,-0.1787109375
404.531,-0.371337890625
404.541,-0.587890625
404.551,-0.72802734375
404.561,-0.7333984375
404.571,-0.6171875
404.581,-0.44384765625
404.591,-0.26904296875
404.601,-0.1298828125
404.611,-0.052490234375
404.621,-0.032073974609375
404.631,-0.0215911865234375
404.641,0.02838134765625
404.651,0.1220703125
404.661,0.21484375
404.671,0.250244140625
404.681,0.2022705078125
404.691,0.08697509765625
404.701,-0.06011962890625
404.711,-0.2093505859375
404.721,-0.343505859375
404.729,-0.44677734375
404.739,-0.50048828125
404.749,-0.490966796875
404.759,-0.4140625
404.769,-0.2783203125
404.779,-0.1092529296875
404.789,0.0517578125
404.799,0.15673828125
404.809,0.17529296875
404.819,0.1146240234375
404.829,0.0136260986328125
404.839,-0.08294677734375
404.849,-0.149169921875
404.859,-0.1817626953125
404.869,-0.1912841796875
404.879,-0.1947021484375
404.889,-0.2027587890625
404.899,-0.2130126953125
404.909,-0.214111328125
404.919,-0.19482421875
404.923,-0.04266357421875
404.933,-0.1239013671875
404.943,-0.222412109375
404.953,-0.30419921875
404.963,-0.34326171875
404.973,-0.332275390625
404.983,-0.28125
404.993,-0.2069091796875
405.003,-0.129638671875
405.013,-0.07269287109375
405.023,-0.05316162109375
405.033,-0.074462890625
405.043,-0.12103271484375
405.053,-0.1632080078125
405.063,-0.1781005859375
405.073,-0.165771484375
405.082,-0.1427001953125
405.092,-0.1295166015625
405.102,-0.1431884765625
405.112,-0.190185546875
405.122,-0.26513671875
405.132,-0.355224609375
405.142,-0.439697265625
405.152,-0.48779296875
405.162,-0.47412109375
405.172,-0.3935546875
405.182,-0.26123046875
405.192,-0.1075439453125
405.202,0.0277099609375
405.212,0.110107421875
405.222,0.12164306640625
405.232,0.06231689453125
405.242,-0.052581787109375
405.252,-0.194580078125
405.262,-0.32568359375
405.272,-0.4072265625
405.281,-0.412841796875
405.291,-0.337646484375
405.301,-0.202880859375
405.311,-0.04364013671875
405.321,0.0980224609375
405.331,0.1844482421875
405.341,0.1961669921875
405.351,0.1336669921875
405.361,0.0105667114257812
405.371,-0.1474609375
405.381,-0.3115234375
405.391,-0.459228515625
405.401,-0.57373046875
405.411,-0.6474609375
405.421,-0.6826171875
405.431,-0.6826171875
405.441,-0.64453125
405.451,-0.56689453125
405.461,-0.45166015625
405.471,-0.306640625
405.479,-0.1512451171875
405.489,-0.00416183471679688
405.499,0.11993408203125
405.509,0.2108154296875
405.519,0.269287109375
405.529,0.30224609375
405.539,0.314453125
405.549,0.308837890625
405.559,0.286865234375
405.569,0.2420654296875
405.579,0.1654052734375
405.589,0.053314208984375
405.599,-0.091064453125
405.609,-0.2578125
405.619,-0.431640625
405.629,-0.59521484375
405.639,-0.73291015625
405.649,-0.8349609375
405.659,-0.900390625
405.669,-0.9345703125
405.673,-0.7783203125
405.683,-0.69580078125
405.693,-0.599609375
405.703,-0.498779296875
405.713,-0.4033203125
405.723,-0.316650390625
405.733,-0.2371826171875
405.743,-0.1624755859375
405.753,-0.09283447265625
405.763,-0.032135009765625
405.773,0.0144119262695312
405.783,0.0465087890625
405.793,0.06829833984375
405.803,0.08477783203125
405.813,0.10003662109375
405.823,0.1163330078125
405.832,0.1337890625
405.842,0.1497802734375
405.852,0.1563720703125
405.862,0.14501953125
405.872,0.1116943359375
405.882,0.05731201171875
405.892,-0.01153564453125
405.902,-0.084228515625
405.912,-0.1529541015625
405.922,-0.2132568359375
405.932,-0.26318359375
405.942,-0.30615234375
405.952,-0.3466796875
405.962,-0.3837890625
405.972,-0.4169921875
405.982,-0.4541015625
405.992,-0.505859375
406.002,-0.5771484375
406.012,-0.66552734375
406.022,-0.763671875
406.031,-0.86328125
406.041,-0.947265625
406.051,-0.994140625
406.061,-0.99951171875
406.071,-0.97802734375
406.081,-0.955078125
406.091,-0.9541015625
406.101,-0.98779296875
406.111,-1.0478515625
406.121,-1.103515625
406.131,-1.115234375
406.141,-1.07421875
406.151,-1.013671875
406.161,-0.974609375
406.171,-0.97119140625
406.181,-0.99462890625
406.191,-1.03125
406.201,-1.0654296875
406.211,-1.0869140625
406.221,-1.0908203125
406.229,-1.076171875
406.239,-1.05078125
406.249,-1.03515625
406.259,-1.052734375
406.269,-1.1064453125
406.279,-1.181640625
406.289,-1.26953125
406.299,-1.373046875
406.309,-1.5
406.319,-1.64453125
406.329,-1.76953125
406.339,-1.81640625
406.349,-1.7412109375
406.359,-1.560546875
406.369,-1.3564453125
406.379,-1.2109375
406.389,-1.1474609375
406.399,-1.1123046875
406.409,-1.044921875
406.419,-0.95654296875
406.423,-1.36328125
406.433,-1.2744140625
406.443,-1.126953125
406.453,-0.9931640625
406.463,-0.92041015625
406.473,-0.916015625
406.483,-0.95703125
406.493,-1.0166015625
406.503,-1.078125
406.513,-1.125
406.523,-1.1474609375
406.533,-1.140625
406.543,-1.107421875
406.553,-1.0458984375
406.563,-0.9609375
406.573,-0.87109375
406.582,-0.80224609375
406.592,-0.77001953125
406.602,-0.775390625
406.612,-0.80908203125
406.622,-0.85400390625
406.632,-0.88720703125
406.642,-0.88623046875
406.652,-0.83740234375
406.662,-0.7421875
406.672,-0.61376953125
406.682,-0.479736328125
406.692,-0.377197265625
406.702,-0.338134765625
406.712,-0.37158203125
406.722,-0.468017578125
406.732,-0.6064453125
406.742,-0.75439453125
406.752,-0.8759765625
406.762,-0.9482421875
406.772,-0.95849609375
406.781,-0.90771484375
406.791,-0.81494140625
406.801,-0.70654296875
406.811,-0.6083984375
406.821,-0.54345703125
406.831,-0.52490234375
406.841,-0.55322265625
406.851,-0.61767578125
406.861,-0.70068359375
406.871,-0.77978515625
406.881,-0.83837890625
406.891,-0.86669921875
406.901,-0.86669921875
406.911,-0.8447265625
406.921,-0.80908203125
406.931,-0.7705078125
406.941,-0.7373046875
406.951,-0.716796875
406.961,-0.71435546875
406.971,-0.732421875
406.979,-0.76953125
406.989,-0.81982421875
406.999,-0.87744140625
407.009,-0.9375
407.019,-0.994140625
407.029,-1.03515625
407.039,-1.05078125
407.049,-1.037109375
407.059,-0.9931640625
407.069,-0.9228515625
407.079,-0.84326171875
407.089,-0.775390625
407.099,-0.734375
407.109,-0.72607421875
407.119,-0.74853515625
407.129,-0.78955078125
407.139,-0.8330078125
407.149,-0.8662109375
407.159,-0.8828125
407.169,-0.876953125
407.173,-0.775390625
407.183,-0.830078125
407.193,-0.912109375
407.203,-0.9931640625
407.213,-1.0400390625
407.223,-1.033203125
407.233,-0.96630859375
407.243,-0.8515625
407.253,-0.716796875
407.263,-0.5947265625
407.273,-0.51806640625
407.283,-0.51025390625
407.293,-0.57421875
407.303,-0.69189453125
407.313,-0.833984375
407.323,-0.966796875
407.332,-1.0625
407.342,-1.1064453125
407.352,-1.095703125
407.362,-1.0478515625
407.372,-0.9853515625
407.382,-0.91796875
407.392,-0.84716796875
407.402,-0.775390625
407.412,-0.70654296875
407.422,-0.6484375
407.432,-0.611328125
407.442,-0.603515625
407.452,-0.6240234375
407.462,-0.66552734375
407.472,-0.72021484375
407.482,-0.7705078125
407.492,-0.7998046875
407.502,-0.80908203125
407.512,-0.8134765625
407.522,-0.82958984375
407.531,-0.859375
407.541,-0.890625
407.551,-0.91552734375
407.561,-0.92529296875
407.571,-0.90380859375
407.581,-0.853515625
407.591,-0.79443359375
407.601,-0.74658203125
407.611,-0.72509765625
407.621,-0.7412109375
407.631,-0.78955078125
407.641,-0.861328125
407.651,-0.9423828125
407.661,-1.0068359375
407.671,-1.0439453125
407.681,-1.0546875
407.691,-1.033203125
407.701,-0.97412109375
407.711,-0.89013671875
407.721,-0.79638671875
407.729,-0.7021484375
407.739,-0.615234375
407.749,-0.5400390625
407.759,-0.48828125
407.769,-0.470458984375
407.779,-0.4775390625
407.789,-0.50244140625
407.799,-0.5517578125
407.809,-0.6123046875
407.819,-0.65673828125
407.829,-0.67822265625
407.839,-0.673828125
407.849,-0.638671875
407.859,-0.58349609375
407.869,-0.52197265625
407.879,-0.4658203125
407.889,-0.4375
407.899,-0.45166015625
407.909,-0.4892578125
407.919,-0.5263671875
407.923,-0.5966796875
407.933,-0.5927734375
407.943,-0.5966796875
407.953,-0.59326171875
407.963,-0.58984375
407.973,-0.60595703125
407.983,-0.6337890625
407.993,-0.6484375
408.003,-0.64990234375
408.013,-0.66259765625
408.023,-0.6826171875
408.033,-0.6728515625
408.043,-0.62646484375
408.053,-0.58349609375
408.063,-0.57568359375
408.073,-0.58251953125
408.082,-0.56787109375
408.092,-0.53271484375
408.102,-0.5146484375
408.112,-0.53759765625
408.122,-0.576171875
408.132,-0.59130859375
408.142,-0.57958984375
408.152,-0.58056640625
408.162,-0.6201171875
408.172,-0.66748046875
408.182,-0.671875
408.192,-0.6259765625
408.202,-0.56689453125
408.212,-0.52099609375
408.222,-0.470947265625
408.232,-0.391845703125
408.242,-0.29931640625
408.252,-0.2447509765625
408.262,-0.25732421875
408.272,-0.30859375
408.28,-0.348388671875
408.29,-0.360595703125
408.3,-0.3623046875
408.31,-0.363525390625
408.32,-0.34912109375
408.33,-0.296142578125
408.34,-0.2034912109375
408.35,-0.0989990234375
408.36,-0.0181884765625
408.37,0.022003173828125
408.38,0.0189208984375
408.39,-0.02618408203125
408.4,-0.095947265625
408.41,-0.1573486328125
408.42,-0.18017578125
408.43,-0.150634765625
408.44,-0.07958984375
408.45,0.000472784042358398
408.46,0.0555419921875
408.47,0.07330322265625
408.479,0.062408447265625
408.489,0.0289306640625
408.499,-0.027679443359375
408.509,-0.09771728515625
408.519,-0.159423828125
408.529,-0.18896484375
408.539,-0.1717529296875
408.549,-0.12237548828125
408.559,-0.07965087890625
408.569,-0.0689697265625
408.579,-0.08282470703125
408.589,-0.0963134765625
408.599,-0.08203125
408.609,-0.02203369140625
408.619,0.06829833984375
408.629,0.1348876953125
408.639,0.1229248046875
408.649,0.0210723876953125
408.659,-0.1339111328125
408.669,-0.2841796875
408.673,-0.1392822265625
408.683,-0.0849609375
408.693,-0.054779052734375
408.703,-0.042327880859375
408.713,-0.04302978515625
408.723,-0.054473876953125
408.733,-0.07110595703125
408.743,-0.08929443359375
408.753,-0.111328125
408.763,-0.1368408203125
408.773,-0.163818359375
408.783,-0.1920166015625
408.793,-0.212158203125
408.803,-0.2080078125
408.813,-0.1749267578125
408.823,-0.11968994140625
408.832,-0.04486083984375
408.842,0.043212890625
408.852,0.1263427734375
408.862,0.18310546875
408.872,0.2001953125
408.882,0.180908203125
408.892,0.1407470703125
408.902,0.0870361328125
408.912,0.0171051025390625
408.922,-0.0633544921875
408.932,-0.1373291015625
408.942,-0.1983642578125
408.952,-0.255859375
408.962,-0.30810546875
408.972,-0.326416015625
408.982,-0.28369140625
408.992,-0.1815185546875
409.002,-0.042083740234375
409.012,0.1092529296875
409.022,0.244873046875
409.03,0.33984375
409.04,0.3876953125
409.05,0.398681640625
409.06,0.380126953125
409.07,0.33251953125
409.08,0.26318359375
409.09,0.19189453125
409.1,0.1295166015625
409.11,0.0740966796875
409.12,0.0291595458984375
409.13,-0.00189685821533203
409.14,-0.03759765625
409.15,-0.0980224609375
409.16,-0.1688232421875
409.17,-0.212646484375
409.18,-0.203125
409.19,-0.1324462890625
409.2,-0.00546646118164062
409.21,0.1563720703125
409.22,0.3173828125
409.229,0.44091796875
409.239,0.499267578125
409.249,0.47900390625
409.259,0.393310546875
409.269,0.27734375
409.279,0.1536865234375
409.289,0.029083251953125
409.299,-0.07586669921875
409.309,-0.129150390625
409.319,-0.1177978515625
409.329,-0.0537109375
409.339,0.03466796875
409.349,0.115478515625
409.359,0.1685791015625
409.369,0.18310546875
409.379,0.152099609375
409.389,0.0855712890625
409.399,0.0154037475585938
409.409,-0.0233917236328125
409.419,-0.0155105590820312
409.423,0.2288818359375
409.433,0.2132568359375
409.443,0.1614990234375
409.453,0.10052490234375
409.463,0.05401611328125
409.473,0.036590576171875
409.483,0.04791259765625
409.493,0.06951904296875
409.503,0.08544921875
409.513,0.08892822265625
409.523,0.0743408203125
409.533,0.047607421875
409.543,0.0264739990234375
409.553,0.023284912109375
409.563,0.04156494140625
409.573,0.07537841796875
409.582,0.11083984375
409.592,0.1375732421875
409.602,0.148193359375
409.612,0.13623046875
409.622,0.1082763671875
409.632,0.079345703125
409.642,0.05718994140625
409.652,0.045135498046875
409.662,0.046356201171875
409.672,0.062042236328125
409.682,0.0936279296875
409.692,0.13330078125
409.702,0.1597900390625
409.712,0.15966796875
409.722,0.13330078125
409.732,0.0855712890625
409.742,0.0260009765625
409.752,-0.0340576171875
409.762,-0.08404541015625
409.772,-0.11114501953125
409.78,-0.10992431640625
409.79,-0.0869140625
409.8,-0.0501708984375
409.81,-0.0042877197265625
409.82,0.047607421875
409.83,0.09991455078125
409.84,0.144287109375
409.85,0.173583984375
409.86,0.17919921875
409.87,0.155517578125
409.88,0.10736083984375
409.89,0.04736328125
409.9,-0.00946807861328125
409.91,-0.052490234375
409.92,-0.07733154296875
409.93,-0.084228515625
409.94,-0.0787353515625
409.95,-0.06829833984375
409.96,-0.057403564453125
409.97,-0.04315185546875
409.979,-0.017303466796875
409.989,0.02642822265625
409.999,0.0887451171875
410.009,0.1602783203125
410.019,0.224609375
410.029,0.268798828125
410.039,0.284912109375
410.049,0.266845703125
410.059,0.214599609375
410.069,0.138427734375
410.079,0.0533447265625
410.089,-0.025421142578125
410.099,-0.083251953125
410.109,-0.10748291015625
410.119,-0.09130859375
410.129,-0.04193115234375
410.139,0.019500732421875
410.149,0.069580078125
410.159,0.09185791015625
410.169,0.076416015625
410.173,-0.217041015625
410.183,-0.1866455078125
410.193,-0.11090087890625
410.203,-0.0100250244140625
410.213,0.09381103515625
410.223,0.1829833984375
410.233,0.2408447265625
410.243,0.251953125
410.253,0.211181640625
410.263,0.1273193359375
410.273,0.0214080810546875
410.283,-0.08270263671875
410.293,-0.163330078125
410.303,-0.20263671875
410.313,-0.1920166015625
410.323,-0.13720703125
410.332,-0.053924560546875
410.342,0.0404052734375
410.352,0.12939453125
410.362,0.1951904296875
410.372,0.2242431640625
410.382,0.217529296875
410.392,0.184326171875
410.402,0.1295166015625
410.412,0.057586669921875
410.422,-0.0140228271484375
410.432,-0.0618896484375
410.442,-0.07550048828125
410.452,-0.060089111328125
410.462,-0.02484130859375
410.472,0.0224761962890625
410.482,0.07269287109375
410.492,0.1160888671875
410.502,0.1455078125
410.512,0.1593017578125
410.522,0.16357421875
410.53,0.169921875
410.54,0.187255859375
410.55,0.2115478515625
410.56,0.227783203125
410.57,0.2261962890625
410.58,0.208251953125
410.59,0.1739501953125
410.6,0.1173095703125
410.61,0.0419921875
410.62,-0.032012939453125
410.63,-0.08380126953125
410.64,-0.0997314453125
410.65,-0.0740966796875
410.66,-0.0116958618164062
410.67,0.0703125
410.68,0.14892578125
410.69,0.2076416015625
410.7,0.23828125
410.71,0.238037109375
410.72,0.2098388671875
410.729,0.1632080078125
410.739,0.11309814453125
410.749,0.06976318359375
410.759,0.0362548828125
410.769,0.016021728515625
410.779,0.00843048095703125
410.789,0.00442123413085938
410.799,-0.00364494323730469
410.809,-0.01593017578125
410.819,-0.0247955322265625
410.829,-0.0211029052734375
410.839,-0.00347328186035156
410.849,0.0214385986328125
410.859,0.040985107421875
410.869,0.044219970703125
410.879,0.0330810546875
410.889,0.0154190063476562
410.899,-0.00474166870117188
410.909,-0.02215576171875
410.919,-0.029388427734375
410.923,0.048828125
410.933,0.032958984375
410.943,0.000679969787597656
410.953,-0.03167724609375
410.963,-0.053619384765625
410.973,-0.06427001953125
410.983,-0.064697265625
410.993,-0.06109619140625
411.003,-0.05999755859375
411.013,-0.058837890625
411.023,-0.0526123046875
411.033,-0.041961669921875
411.043,-0.030853271484375
411.053,-0.02783203125
411.063,-0.041839599609375
411.073,-0.0709228515625
411.082,-0.10736083984375
411.092,-0.1485595703125
411.102,-0.190185546875
411.112,-0.2230224609375
411.122,-0.2421875
411.132,-0.2454833984375
411.142,-0.228271484375
411.152,-0.1912841796875
411.162,-0.1446533203125
411.172,-0.09515380859375
411.182,-0.03997802734375
411.192,0.0179595947265625
411.202,0.0655517578125
411.212,0.093505859375
411.222,0.0950927734375
411.232,0.0528564453125
411.242,-0.04449462890625
411.252,-0.1744384765625
411.262,-0.293701171875
411.272,-0.368896484375
411.28,-0.378662109375
411.29,-0.309814453125
411.3,-0.173828125
411.31,-0.0228118896484375
411.32,0.08062744140625
411.33,0.10870361328125
411.34,0.07000732421875
411.35,-0.01800537109375
411.36,-0.13427734375
411.37,-0.2467041015625
411.38,-0.324462890625
411.39,-0.364501953125
411.4,-0.391357421875
411.41,-0.42041015625
411.42,-0.43359375
411.43,-0.401123046875
411.44,-0.31640625
411.45,-0.199951171875
411.46,-0.07220458984375
411.47,0.055328369140625
411.479,0.1583251953125
411.489,0.19775390625
411.499,0.1571044921875
411.509,0.0640869140625
411.519,-0.03753662109375
411.529,-0.12139892578125
411.539,-0.1842041015625
411.549,-0.2340087890625
411.559,-0.2744140625
411.569,-0.297119140625
411.579,-0.296142578125
411.589,-0.28369140625
411.599,-0.279296875
411.609,-0.292724609375
411.619,-0.317138671875
411.629,-0.33056640625
411.639,-0.317138671875
411.649,-0.2822265625
411.659,-0.23828125
411.669,-0.18505859375
411.673,0.14306640625
411.683,0.057891845703125
411.693,-0.07037353515625
411.703,-0.1951904296875
411.713,-0.292724609375
411.723,-0.364013671875
411.733,-0.4248046875
411.743,-0.4873046875
411.753,-0.54248046875
411.763,-0.568359375
411.773,-0.54248046875
411.783,-0.458740234375
411.793,-0.3369140625
411.803,-0.2135009765625
411.813,-0.11492919921875
411.823,-0.050201416015625
411.832,-0.019805908203125
411.842,-0.01580810546875
411.852,-0.0245361328125
411.862,-0.036407470703125
411.872,-0.047821044921875
411.882,-0.061492919921875
411.892,-0.08673095703125
411.902,-0.1278076171875
411.912,-0.1793212890625
411.922,-0.2357177734375
411.932,-0.293701171875
411.942,-0.35693359375
411.952,-0.44482421875
411.962,-0.56982421875
411.972,-0.70263671875
411.982,-0.77783203125
411.992,-0.73974609375
412.002,-0.5849609375
412.012,-0.35498046875
412.022,-0.10443115234375
412.03,0.11944580078125
412.04,0.27685546875
412.05,0.341796875
412.06,0.30859375
412.07,0.19775390625
412.08,0.04718017578125
412.09,-0.1051025390625
412.1,-0.2327880859375
412.11,-0.323486328125
412.12,-0.37548828125
412.13,-0.392333984375
412.14,-0.373046875
412.15,-0.30712890625
412.16,-0.190673828125
412.17,-0.040496826171875
412.18,0.1123046875
412.19,0.2288818359375
412.2,0.27099609375
412.21,0.2210693359375
412.22,0.0843505859375
412.229,-0.1177978515625
412.239,-0.352294921875
412.249,-0.5830078125
412.259,-0.78369140625
412.269,-0.9365234375
412.279,-1.021484375
412.289,-1.0146484375
412.299,-0.8974609375
412.309,-0.685546875
412.319,-0.435302734375
412.329,-0.2276611328125
412.339,-0.126708984375
412.349,-0.1429443359375
412.359,-0.241455078125
412.369,-0.38134765625
412.379,-0.5302734375
412.389,-0.646484375
412.399,-0.68359375
412.409,-0.63525390625
412.419,-0.5419921875
412.423,-0.292236328125
412.433,-0.360595703125
412.443,-0.460693359375
412.453,-0.54833984375
412.463,-0.60546875
412.473,-0.6376953125
412.483,-0.6416015625
412.493,-0.5888671875
412.503,-0.453125
412.513,-0.2479248046875
412.523,-0.034027099609375
412.533,0.11871337890625
412.543,0.174560546875
412.553,0.1419677734375
412.563,0.055694580078125
412.573,-0.04705810546875
412.581,-0.145751953125
412.591,-0.235595703125
412.601,-0.31494140625
412.611,-0.375244140625
412.621,-0.39453125
412.631,-0.34619140625
412.641,-0.2269287109375
412.651,-0.07427978515625
412.661,0.0447998046875
412.671,0.06976318359375
412.681,-0.0155715942382812
412.691,-0.171630859375
412.701,-0.341552734375
412.711,-0.4951171875
412.721,-0.6240234375
412.731,-0.7138671875
412.741,-0.75146484375
412.751,-0.75
412.761,-0.73193359375
412.771,-0.69482421875
412.78,-0.62109375
412.79,-0.521484375
412.8,-0.43701171875
412.81,-0.399658203125
412.82,-0.412109375
412.83,-0.46484375
412.84,-0.5576171875
412.85,-0.68359375
412.86,-0.80615234375
412.87,-0.875
412.88,-0.8662109375
412.89,-0.7890625
412.9,-0.6689453125
412.91,-0.5400390625
412.92,-0.44384765625
412.93,-0.408447265625
412.94,-0.42919921875
412.95,-0.48681640625
412.96,-0.55859375
412.97,-0.6142578125
412.979,-0.6298828125
412.989,-0.59912109375
412.999,-0.5341796875
413.009,-0.456787109375
413.019,-0.3896484375
413.029,-0.345947265625
413.039,-0.324462890625
413.049,-0.318115234375
413.059,-0.322265625
413.069,-0.337646484375
413.079,-0.364013671875
413.089,-0.401611328125
413.099,-0.44775390625
413.109,-0.4931640625
413.119,-0.52880859375
413.129,-0.5546875
413.139,-0.56298828125
413.149,-0.54345703125
413.159,-0.50048828125
413.169,-0.453125
413.173,-0.325439453125
413.183,-0.311279296875
413.193,-0.30810546875
413.203,-0.328369140625
413.213,-0.3798828125
413.223,-0.449951171875
413.233,-0.517578125
413.243,-0.58203125
413.253,-0.64111328125
413.263,-0.67431640625
413.273,-0.6689453125
413.283,-0.6318359375
413.293,-0.5732421875
413.303,-0.5
413.313,-0.4189453125
413.323,-0.3369140625
413.331,-0.2626953125
413.341,-0.211669921875
413.351,-0.19873046875
413.361,-0.217041015625
413.371,-0.2408447265625
413.381,-0.2484130859375
413.391,-0.2333984375
413.401,-0.20068359375
413.411,-0.1614990234375
413.421,-0.1287841796875
413.431,-0.1063232421875
413.441,-0.089111328125
413.451,-0.072998046875
413.461,-0.0643310546875
413.471,-0.07684326171875
413.481,-0.11669921875
413.491,-0.171875
413.501,-0.2159423828125
413.511,-0.22314453125
413.521,-0.1888427734375
413.53,-0.12939453125
413.54,-0.06561279296875
413.55,-0.0102157592773438
413.56,0.030364990234375
413.57,0.04412841796875
413.58,0.01385498046875
413.59,-0.0653076171875
413.6,-0.177734375
413.61,-0.295654296875
413.62,-0.38916015625
413.63,-0.436279296875
413.64,-0.427490234375
413.65,-0.367919921875
413.66,-0.271484375
413.67,-0.1539306640625
413.68,-0.03424072265625
413.69,0.0653076171875
413.7,0.12286376953125
413.71,0.12286376953125
413.72,0.07061767578125
413.729,-0.00414276123046875
413.739,-0.06732177734375
413.749,-0.09893798828125
413.759,-0.09271240234375
413.769,-0.05340576171875
413.779,-0.000614166259765625
413.789,0.03662109375
413.799,0.040008544921875
413.809,0.00890350341796875
413.819,-0.05108642578125
413.829,-0.12841796875
413.839,-0.2012939453125
413.849,-0.2489013671875
413.859,-0.259765625
413.869,-0.2266845703125
413.879,-0.1497802734375
413.889,-0.04449462890625
413.899,0.06463623046875
413.909,0.1558837890625
413.919,0.2122802734375
413.923,-0.0684814453125
413.933,-0.0986328125
413.943,-0.07611083984375
413.953,-0.0294342041015625
413.963,0.0128097534179688
413.973,0.04559326171875
413.983,0.07122802734375
413.993,0.07958984375
414.003,0.05218505859375
414.013,-0.0211639404296875
414.023,-0.128173828125
414.033,-0.2374267578125
414.043,-0.322998046875
414.053,-0.37890625
414.063,-0.3994140625
414.073,-0.370361328125
414.081,-0.28466796875
414.091,-0.1591796875
414.101,-0.0266876220703125
414.111,0.0823974609375
414.121,0.1492919921875
414.131,0.172119140625
414.141,0.1634521484375
414.151,0.1348876953125
414.161,0.0958251953125
414.171,0.0673828125
414.181,0.06573486328125
414.191,0.0728759765625
414.201,0.052001953125
414.211,-0.0182647705078125
414.221,-0.132080078125
414.231,-0.262939453125
414.241,-0.381591796875
414.251,-0.47412109375
414.261,-0.541015625
414.271,-0.57666015625
414.28,-0.56298828125
414.29,-0.4775390625
414.3,-0.327392578125
414.31,-0.1629638671875
414.32,-0.035736083984375
414.33,0.043548583984375
414.34,0.09814453125
414.35,0.1513671875
414.36,0.198974609375
414.37,0.21044921875
414.38,0.16357421875
414.39,0.06890869140625
414.4,-0.0474853515625
414.41,-0.16748046875
414.42,-0.28173828125
414.43,-0.38232421875
414.44,-0.456298828125
414.45,-0.482421875
414.46,-0.4462890625
414.47,-0.363037109375
414.479,-0.268798828125
414.489,-0.1837158203125
414.499,-0.09918212890625
414.509,-0.00858306884765625
414.519,0.065673828125
414.529,0.09039306640625
414.539,0.061309814453125
414.549,0.0100479125976562
414.559,-0.03204345703125
414.569,-0.06793212890625
414.579,-0.11981201171875
414.589,-0.189208984375
414.599,-0.2509765625
414.609,-0.28076171875
414.619,-0.275634765625
414.629,-0.251953125
414.639,-0.229736328125
414.649,-0.2095947265625
414.659,-0.173095703125
414.669,-0.1090087890625
414.673,0.10650634765625
414.683,0.133056640625
414.693,0.150146484375
414.703,0.1302490234375
414.713,0.062408447265625
414.723,-0.039154052734375
414.733,-0.145751953125
414.743,-0.224853515625
414.753,-0.257080078125
414.763,-0.252197265625
414.773,-0.2371826171875
414.783,-0.221435546875
414.793,-0.1796875
414.803,-0.07904052734375
414.813,0.0791015625
414.823,0.24365234375
414.831,0.34228515625
414.841,0.33251953125
414.851,0.2294921875
414.861,0.08880615234375
414.871,-0.0303955078125
414.881,-0.096435546875
414.891,-0.11846923828125
414.901,-0.133056640625
414.911,-0.1710205078125
414.921,-0.2401123046875
414.931,-0.32958984375
414.941,-0.4130859375
414.951,-0.45556640625
414.961,-0.424072265625
414.971,-0.2861328125
414.981,-0.055633544921875
414.991,0.1414794921875
415.001,0.131103515625
415.011,-0.09967041015625
415.021,-0.333251953125
415.03,-0.355224609375
415.04,-0.20947265625
415.05,-0.1312255859375
415.06,-0.250732421875
415.07,-0.4501953125
415.08,-0.517578125
415.09,-0.37744140625
415.1,-0.1282958984375
415.11,0.10577392578125
415.12,0.28466796875
415.13,0.418212890625
415.14,0.494873046875
415.15,0.47216796875
415.16,0.3173828125
415.17,0.042633056640625
415.18,-0.3115234375
415.19,-0.71728515625
415.2,-1.1328125
415.21,-1.453125
415.22,-1.5595703125
415.229,-1.4482421875
415.239,-1.2568359375
415.249,-1.158203125
415.259,-1.1767578125
415.269,-1.158203125
415.279,-0.9775390625
415.289,-0.70751953125
415.299,-0.4912109375
415.309,-0.320068359375
415.319,-0.06097412109375
415.329,0.328125
415.339,0.701171875
415.349,0.8916015625
415.359,0.9140625
415.369,0.90576171875
415.379,0.8955078125
415.389,0.78662109375
415.399,0.55322265625
415.409,0.30859375
415.419,0.1356201171875
415.423,0.2489013671875
415.433,0.40576171875
415.443,0.49951171875
415.453,0.57568359375
415.463,0.57080078125
415.473,0.408447265625
415.483,0.18115234375
415.493,0.060333251953125
415.503,0.06622314453125
415.513,0.08001708984375
415.523,0.041839599609375
415.533,0.0102691650390625
415.543,0.038818359375
415.553,0.09942626953125
415.563,0.1455078125
415.573,0.169677734375
415.581,0.1708984375
415.591,0.123779296875
415.601,0.00274658203125
415.611,-0.1966552734375
415.621,-0.45947265625
415.631,-0.73974609375
415.641,-0.962890625
415.651,-1.0615234375
415.661,-1.009765625
415.671,-0.8193359375
415.681,-0.53076171875
415.691,-0.2005615234375
415.701,0.11932373046875
415.711,0.381591796875
415.721,0.54052734375
415.731,0.5654296875
415.741,0.465576171875
415.751,0.291259765625
415.761,0.105224609375
415.771,-0.038360595703125
415.78,-0.10601806640625
415.79,-0.08795166015625
415.8,-0.00124359130859375
415.81,0.10699462890625
415.82,0.1790771484375
415.83,0.1729736328125
415.84,0.07159423828125
415.85,-0.115478515625
415.86,-0.360107421875
415.87,-0.62890625
415.88,-0.8935546875
415.89,-1.140625
415.9,-1.3798828125
415.91,-1.609375
415.92,-1.806640625
415.93,-1.9306640625
415.94,-1.9384765625
415.95,-1.8076171875
415.96,-1.552734375
415.97,-1.2236328125
415.979,-0.884765625
415.989,-0.583984375
415.999,-0.344970703125
416.009,-0.171142578125
416.019,-0.049163818359375
416.029,0.037933349609375
416.039,0.0987548828125
416.049,0.1322021484375
416.059,0.13427734375
416.069,0.10430908203125
416.079,0.053131103515625
416.089,0.00125408172607422
416.099,-0.032867431640625
416.109,-0.0413818359375
416.119,-0.0283355712890625
416.129,-0.00206375122070312
416.139,0.033233642578125
416.149,0.075927734375
416.159,0.12335205078125
416.169,0.16943359375
416.173,0.233642578125
416.183,0.2135009765625
416.193,0.1656494140625
416.203,0.08740234375
416.213,-0.01544189453125
416.223,-0.1365966796875
416.233,-0.271484375
416.243,-0.408447265625
416.253,-0.529296875
416.263,-0.62158203125
416.273,-0.67626953125
416.283,-0.69189453125
416.293,-0.6767578125
416.303,-0.6435546875
416.313,-0.59912109375
416.323,-0.548828125
416.331,-0.4921875
416.341,-0.43115234375
416.351,-0.370361328125
416.361,-0.310302734375
416.371,-0.248046875
416.381,-0.17919921875
416.391,-0.09661865234375
416.401,0.00134944915771484
416.411,0.1025390625
416.421,0.1927490234375
416.431,0.258056640625
416.441,0.277587890625
416.451,0.2344970703125
416.461,0.1248779296875
416.471,-0.0439453125
416.481,-0.259765625
416.491,-0.509765625
416.501,-0.77685546875
416.511,-1.0361328125
416.521,-1.2646484375
416.53,-1.4443359375
416.54,-1.56640625
416.55,-1.6181640625
416.56,-1.591796875
416.57,-1.4951171875
416.58,-1.3564453125
416.59,-1.2119140625
416.6,-1.091796875
416.61,-1.0185546875
416.62,-0.99853515625
416.63,-1.0263671875
416.64,-1.1005859375
416.65,-1.2109375
416.66,-1.33203125
416.67,-1.4345703125
416.68,-1.4912109375
416.69,-1.486328125
416.7,-1.4208984375
416.71,-1.3115234375
416.72,-1.189453125
416.729,-1.080078125
416.739,-0.9970703125
416.749,-0.955078125
416.759,-0.97119140625
416.769,-1.060546875
416.779,-1.2373046875
416.789,-1.5087890625
416.799,-1.869140625
416.809,-2.27734375
416.819,-2.673828125
416.829,-3.009765625
416.839,-3.267578125
416.849,-3.462890625
416.859,-3.619140625
416.869,-3.751953125
416.879,-3.869140625
416.889,-3.96875
416.899,-4.0390625
416.909,-4.03515625
416.919,-3.912109375
416.922,-2.021484375
416.932,-1.7294921875
416.942,-1.4912109375
416.952,-1.294921875
416.962,-1.146484375
416.972,-1.0498046875
416.982,-0.98876953125
416.992,-0.9296875
417.002,-0.857421875
417.012,-0.80029296875
417.022,-0.80615234375
417.032,-0.89208984375
417.042,-1.0234375
417.052,-1.1494140625
417.062,-1.236328125
417.072,-1.271484375
417.081,-1.2578125
417.091,-1.212890625
417.101,-1.1708984375
417.111,-1.1728515625
417.121,-1.251953125
417.131,-1.396484375
417.141,-1.560546875
417.151,-1.69921875
417.161,-1.7919921875
417.171,-1.8203125
417.181,-1.759765625
417.191,-1.6123046875
417.201,-1.4150390625
417.211,-1.2119140625
417.221,-1.052734375
417.231,-0.9677734375
417.241,-0.9423828125
417.251,-0.947265625
417.261,-0.9658203125
417.271,-0.998046875
417.28,-1.041015625
417.29,-1.0751953125
417.3,-1.07421875
417.31,-1.0322265625
417.32,-0.974609375
417.33,-0.9267578125
417.34,-0.904296875
417.35,-0.9150390625
417.36,-0.95556640625
417.37,-1.0205078125
417.38,-1.1162109375
417.39,-1.2392578125
417.4,-1.35546875
417.41,-1.4228515625
417.42,-1.42578125
417.43,-1.37890625
417.44,-1.306640625
417.45,-1.21875
417.46,-1.1083984375
417.47,-0.98583984375
417.474,-1.4365234375
417.484,-1.5595703125
417.494,-1.552734375
417.504,-1.455078125
417.514,-1.3427734375
417.524,-1.26171875
417.534,-1.2001953125
417.544,-1.1279296875
417.554,-1.0419921875
417.564,-0.96337890625
417.574,-0.9189453125
417.584,-0.91845703125
417.594,-0.9462890625
417.604,-0.98046875
417.614,-1.0146484375
417.624,-1.0634765625
417.632,-1.1357421875
417.642,-1.19921875
417.652,-1.197265625
417.662,-1.10546875
417.672,-0.96533203125
417.682,-0.8349609375
417.692,-0.74560546875
417.702,-0.69677734375
417.712,-0.68994140625
417.722,-0.73681640625
417.732,-0.8505859375
417.742,-1.0244140625
417.752,-1.2158203125
417.762,-1.3564453125
417.772,-1.400390625
417.782,-1.3525390625
417.792,-1.2509765625
417.802,-1.14453125
417.812,-1.0703125
417.822,-1.033203125
417.831,-1.01171875
417.841,-0.98193359375
417.851,-0.939453125
417.861,-0.888671875
417.871,-0.83251953125
417.881,-0.7724609375
417.891,-0.72119140625
417.901,-0.71875
417.911,-0.80029296875
417.921,-0.9443359375
417.931,-1.0869140625
417.941,-1.173828125
417.951,-1.1650390625
417.961,-1.0302734375
417.971,-0.78125
417.981,-0.468017578125
417.991,-0.1470947265625
418.001,0.1259765625
418.011,0.28857421875
418.021,0.285888671875
418.03,0.0872802734375
418.04,-0.28271484375
418.05,-0.71337890625
418.06,-1.0419921875
418.07,-1.162109375
418.08,-1.0947265625
418.09,-0.9560546875
418.1,-0.86474609375
418.11,-0.8671875
418.12,-0.91357421875
418.13,-0.91455078125
418.14,-0.818359375
418.15,-0.64306640625
418.16,-0.4677734375
418.17,-0.38916015625
418.18,-0.450927734375
418.19,-0.6318359375
418.2,-0.88671875
418.21,-1.1611328125
418.22,-1.4169921875
418.224,-1.88671875
418.234,-1.66796875
418.244,-1.3330078125
418.254,-0.93310546875
418.264,-0.55224609375
418.274,-0.258056640625
418.284,-0.06939697265625
418.294,0.03057861328125
418.304,0.07647705078125
418.314,0.0972900390625
418.324,0.09552001953125
418.334,0.046600341796875
418.344,-0.07373046875
418.354,-0.25927734375
418.364,-0.477294921875
418.374,-0.69873046875
418.382,-0.908203125
418.392,-1.0966796875
418.402,-1.2607421875
418.412,-1.400390625
418.422,-1.5283203125
418.432,-1.6611328125
418.442,-1.80859375
418.452,-1.9638671875
418.462,-2.111328125
418.472,-2.23046875
418.482,-2.3125
418.492,-2.353515625
418.502,-2.34765625
418.512,-2.28515625
418.522,-2.162109375
418.532,-1.9912109375
418.542,-1.802734375
418.552,-1.6416015625
418.562,-1.5439453125
418.572,-1.5302734375
418.581,-1.6171875
418.591,-1.7978515625
418.601,-2.0234375
418.611,-2.25
418.621,-2.47265625
418.631,-2.677734375
418.641,-2.791015625
418.651,-2.75390625
418.661,-2.568359375
418.671,-2.27734375
418.681,-1.904296875
418.691,-1.458984375
418.701,-0.96484375
418.711,-0.447265625
418.721,0.045654296875
418.731,0.427490234375
418.741,0.59521484375
418.751,0.49560546875
418.761,0.1658935546875
418.771,-0.28369140625
418.78,-0.73095703125
418.79,-1.0810546875
418.8,-1.2744140625
418.81,-1.283203125
418.82,-1.13671875
418.83,-0.92041015625
418.84,-0.75
418.85,-0.70458984375
418.86,-0.783203125
418.87,-0.919921875
418.88,-1.029296875
418.89,-1.04296875
418.9,-0.9306640625
418.91,-0.69873046875
418.92,-0.400390625
418.93,-0.12249755859375
418.94,0.049224853515625
418.95,0.06982421875
418.96,-0.046051025390625
418.97,-0.241943359375
418.974,-0.68701171875
418.984,-0.57421875
418.994,-0.4755859375
419.004,-0.42919921875
419.014,-0.4443359375
419.024,-0.5
419.034,-0.5576171875
419.044,-0.57421875
419.054,-0.5087890625
419.064,-0.32958984375
419.074,-0.025421142578125
419.084,0.393310546875
419.094,0.8916015625
419.104,1.40234375
419.114,1.833984375
419.124,2.09375
419.132,2.111328125
419.142,1.853515625
419.152,1.337890625
419.162,0.6376953125
419.172,-0.13671875
419.182,-0.873046875
419.192,-1.474609375
419.202,-1.869140625
419.212,-2.01953125
419.222,-1.9306640625
419.232,-1.6259765625
419.242,-1.1435546875
419.252,-0.529296875
419.262,0.1666259765625
419.272,0.900390625
419.282,1.61328125
419.292,2.21875
419.302,2.6171875
419.312,2.7265625
419.322,2.5078125
419.331,1.974609375
419.341,1.201171875
419.351,0.306396484375
419.361,-0.58203125
419.371,-1.361328125
419.381,-1.98046875
419.391,-2.435546875
419.401,-2.75390625
419.411,-2.966796875
419.421,-3.103515625
419.431,-3.197265625
419.441,-3.26953125
419.451,-3.328125
419.461,-3.3671875
419.471,-3.380859375
419.481,-3.361328125
419.491,-3.306640625
419.501,-3.22265625
419.511,-3.107421875
419.521,-2.955078125
419.53,-2.763671875
419.54,-2.5234375
419.55,-2.23046875
419.56,-1.884765625
419.57,-1.494140625
419.58,-1.0771484375
419.59,-0.65576171875
419.6,-0.25732421875
419.61,0.09661865234375
419.62,0.398193359375
419.63,0.65625
419.64,0.89404296875
419.65,1.134765625
419.66,1.40234375
419.67,1.7138671875
419.68,2.078125
419.69,2.478515625
419.7,2.884765625
419.71,3.267578125
419.72,3.60546875
419.724,4.5
419.734,4.53515625
419.744,4.53125
419.754,4.5078125
419.764,4.46875
419.774,4.4296875
419.784,4.39453125
419.794,4.35546875
419.804,4.30859375
419.814,4.25
419.824,4.17578125
419.834,4.09375
419.844,4.01171875
419.854,3.921875
419.864,3.810546875
419.874,3.677734375
419.882,3.517578125
419.892,3.314453125
419.902,3.048828125
419.912,2.701171875
419.922,2.265625
419.932,1.7529296875
419.942,1.1728515625
419.952,0.546875
419.962,-0.0997314453125
419.972,-0.7421875
419.982,-1.3564453125
419.992,-1.9150390625
420.002,-2.375
420.012,-2.701171875
420.022,-2.873046875
420.032,-2.88671875
420.042,-2.75390625
420.052,-2.48828125
420.062,-2.091796875
420.072,-1.5595703125
420.081,-0.89794921875
420.091,-0.147705078125
420.101,0.61376953125
420.111,1.2802734375
420.121,1.7333984375
420.131,1.8720703125
420.141,1.658203125
420.151,1.1416015625
420.161,0.447509765625
420.171,-0.2685546875
420.181,-0.85595703125
420.191,-1.1962890625
420.201,-1.224609375
420.211,-0.94140625
420.221,-0.4189453125
420.231,0.2061767578125
420.241,0.75634765625
420.251,1.0693359375
420.261,1.060546875
420.271,0.74951171875
420.28,0.2490234375
420.29,-0.275146484375
420.3,-0.654296875
420.31,-0.77490234375
420.32,-0.615234375
420.33,-0.25732421875
420.34,0.1427001953125
420.35,0.421630859375
420.36,0.477294921875
420.37,0.305908203125
420.38,-0.00315475463867188
420.39,-0.309326171875
420.4,-0.485107421875
420.41,-0.47265625
420.42,-0.310546875
420.43,-0.10662841796875
420.44,0.02508544921875
420.45,0.0294036865234375
420.46,-0.06451416015625
420.47,-0.1719970703125
420.475,0.10333251953125
420.485,0.0024261474609375
420.495,-0.15869140625
420.505,-0.2880859375
420.515,-0.315185546875
420.525,-0.2366943359375
420.535,-0.11688232421875
420.545,-0.038665771484375
420.555,-0.0408935546875
420.565,-0.09588623046875
420.575,-0.138916015625
420.585,-0.1265869140625
420.595,-0.07470703125
420.605,-0.036529541015625
420.615,-0.04388427734375
420.625,-0.0751953125
420.632,-0.08807373046875
420.642,-0.072998046875
420.652,-0.058502197265625
420.662,-0.0667724609375
420.672,-0.07867431640625
420.682,-0.05657958984375
420.692,-0.00133132934570312
420.702,0.04180908203125
420.712,0.038970947265625
420.722,0.00749969482421875
420.732,-0.0079803466796875
420.742,0.0048065185546875
420.752,0.0105514526367188
420.762,-0.02081298828125
420.772,-0.07086181640625
420.782,-0.09954833984375
420.792,-0.10076904296875
420.802,-0.1051025390625
420.812,-0.1307373046875
420.822,-0.15673828125
420.831,-0.1536865234375
420.841,-0.1263427734375
420.851,-0.10601806640625
420.861,-0.10791015625
420.871,-0.1243896484375
420.881,-0.1494140625
420.891,-0.1839599609375
420.901,-0.216552734375
420.911,-0.2259521484375
420.921,-0.2059326171875
420.931,-0.1719970703125
420.941,-0.1380615234375
420.951,-0.10321044921875
420.961,-0.063720703125
420.971,-0.0279541015625
420.981,-0.0050201416015625
420.991,0.009674072265625
421.001,0.01983642578125
421.011,0.017974853515625
421.021,0.000153899192810059
421.029,-0.0278472900390625
421.039,-0.06219482421875
421.049,-0.1063232421875
421.059,-0.162109375
421.069,-0.2218017578125
421.079,-0.27197265625
421.089,-0.302734375
421.099,-0.304443359375
421.109,-0.26318359375
421.119,-0.1759033203125
421.129,-0.055816650390625
421.139,0.07568359375
421.149,0.1937255859375
421.159,0.27099609375
421.169,0.289306640625
421.179,0.2479248046875
421.189,0.1614990234375
421.199,0.053070068359375
421.209,-0.05419921875
421.219,-0.1414794921875
421.223,-0.1861572265625
421.233,-0.184814453125
421.243,-0.2080078125
421.253,-0.251220703125
421.263,-0.3046875
421.273,-0.359619140625
421.283,-0.408935546875
421.293,-0.453125
421.303,-0.497802734375
421.313,-0.5400390625
421.323,-0.58154296875
421.333,-0.63818359375
421.343,-0.716796875
421.353,-0.79443359375
421.363,-0.85302734375
421.373,-0.90380859375
421.382,-0.95458984375
421.392,-0.98974609375
421.402,-0.99755859375
421.412,-0.98828125
421.422,-0.9755859375
421.432,-0.9501953125
421.442,-0.90283203125
421.452,-0.84912109375
421.462,-0.80712890625
421.472,-0.7705078125
421.482,-0.7294921875
421.492,-0.69921875
421.502,-0.7041015625
421.512,-0.73681640625
421.522,-0.759765625
421.532,-0.75048828125
421.542,-0.73291015625
421.552,-0.7421875
421.562,-0.7734375
421.572,-0.78662109375
421.581,-0.76611328125
421.591,-0.74169921875
421.601,-0.7490234375
421.611,-0.77978515625
421.621,-0.7822265625
421.631,-0.72705078125
421.641,-0.64697265625
421.651,-0.607421875
421.661,-0.6328125
421.671,-0.6826171875
421.681,-0.69482421875
421.691,-0.65576171875
421.701,-0.61279296875
421.711,-0.62548828125
421.721,-0.6982421875
421.731,-0.77685546875
421.741,-0.79833984375
421.751,-0.74951171875
421.761,-0.67138671875
421.771,-0.62353515625
421.779,-0.63134765625
421.789,-0.66748046875
421.799,-0.67529296875
421.809,-0.6142578125
421.819,-0.4921875
421.829,-0.36181640625
421.839,-0.2890625
421.849,-0.315673828125
421.859,-0.43017578125
421.869,-0.57373046875
421.879,-0.67529296875
421.889,-0.68603515625
421.899,-0.60107421875
421.909,-0.45849609375
421.919,-0.325927734375
421.929,-0.27392578125
421.939,-0.337158203125
421.949,-0.492431640625
421.959,-0.67236328125
421.969,-0.8046875
421.973,-0.39013671875
421.983,-0.408203125
421.993,-0.51416015625
422.003,-0.63671875
422.013,-0.69873046875
422.023,-0.65673828125
422.033,-0.5146484375
422.043,-0.318603515625
422.053,-0.139404296875
422.063,-0.0479736328125
422.073,-0.082275390625
422.083,-0.22216796875
422.093,-0.40234375
422.103,-0.55029296875
422.113,-0.61669921875
422.123,-0.58544921875
422.132,-0.46923828125
422.142,-0.305908203125
422.152,-0.1529541015625
422.162,-0.062744140625
422.172,-0.05316162109375
422.182,-0.1019287109375
422.192,-0.1663818359375
422.202,-0.1956787109375
422.212,-0.1435546875
422.222,-0.0031890869140625
422.232,0.1766357421875
422.242,0.32666015625
422.252,0.407470703125
422.262,0.424072265625
422.272,0.40771484375
422.282,0.391357421875
422.292,0.387939453125
422.302,0.376708984375
422.312,0.31884765625
422.322,0.1905517578125
422.331,0.00354957580566406
422.341,-0.1971435546875
422.351,-0.355712890625
422.361,-0.43115234375
422.371,-0.412841796875
422.381,-0.322998046875
422.391,-0.201416015625
422.401,-0.08636474609375
422.411,-0.00442123413085938
422.421,0.034423828125
422.431,0.0350341796875
422.441,0.010284423828125
422.451,-0.0270843505859375
422.461,-0.06634521484375
422.471,-0.09869384765625
422.481,-0.11663818359375
422.491,-0.1114501953125
422.501,-0.07147216796875
422.511,0.016510009765625
422.521,0.1612548828125
422.529,0.348388671875
422.539,0.5224609375
422.549,0.609375
422.559,0.5673828125
422.569,0.42041015625
422.579,0.22216796875
422.589,0.018798828125
422.599,-0.16357421875
422.609,-0.3046875
422.619,-0.381591796875
422.629,-0.380859375
422.639,-0.308349609375
422.649,-0.1917724609375
422.659,-0.07379150390625
422.669,0.0121231079101562
422.679,0.0579833984375
422.689,0.0721435546875
422.699,0.06512451171875
422.709,0.047607421875
422.719,0.041900634765625
422.723,0.342529296875
422.733,0.2274169921875
422.743,0.0706787109375
422.753,-0.0830078125
422.763,-0.2064208984375
422.773,-0.283935546875
422.783,-0.3046875
422.793,-0.265625
422.803,-0.1737060546875
422.813,-0.048736572265625
422.823,0.07830810546875
422.833,0.1744384765625
422.843,0.2196044921875
422.853,0.2125244140625
422.863,0.1622314453125
422.873,0.08209228515625
422.882,-0.00626754760742188
422.892,-0.0750732421875
422.902,-0.1015625
422.912,-0.0767822265625
422.922,-0.00946807861328125
422.932,0.07763671875
422.942,0.1590576171875
422.952,0.2147216796875
422.962,0.232666015625
422.972,0.2139892578125
422.982,0.1697998046875
422.992,0.1058349609375
423.002,0.0250396728515625
423.012,-0.05267333984375
423.022,-0.09747314453125
423.032,-0.10107421875
423.042,-0.07989501953125
423.052,-0.052581787109375
423.062,-0.0318603515625
423.072,-0.0250091552734375
423.081,-0.029541015625
423.091,-0.036895751953125
423.101,-0.041412353515625
423.111,-0.039642333984375
423.121,-0.0253448486328125
423.131,0.00414276123046875
423.141,0.038543701171875
423.151,0.06304931640625
423.161,0.0689697265625
423.171,0.045684814453125
423.181,-0.014312744140625
423.191,-0.0950927734375
423.201,-0.1661376953125
423.211,-0.206787109375
423.221,-0.209228515625
423.231,-0.1734619140625
423.241,-0.106201171875
423.251,-0.0191802978515625
423.261,0.0703125
423.271,0.1370849609375
423.279,0.1583251953125
423.289,0.135986328125
423.299,0.09259033203125
423.309,0.046112060546875
423.319,0.0081787109375
423.329,-0.0113677978515625
423.339,-0.0112762451171875
423.349,0.0018310546875
423.359,0.018707275390625
423.369,0.030792236328125
423.379,0.039520263671875
423.389,0.052886962890625
423.399,0.071044921875
423.409,0.09100341796875
423.419,0.11297607421875
423.429,0.13525390625
423.439,0.1571044921875
423.449,0.1781005859375
423.459,0.1910400390625
423.469,0.1912841796875
423.473,0.05596923828125
423.483,0.009368896484375
423.493,-0.033966064453125
423.503,-0.06939697265625
423.513,-0.09466552734375
423.523,-0.1058349609375
423.533,-0.10455322265625
423.543,-0.10113525390625
423.553,-0.10345458984375
423.563,-0.11322021484375
423.573,-0.1278076171875
423.583,-0.1383056640625
423.593,-0.1348876953125
423.603,-0.1146240234375
423.613,-0.07733154296875
423.623,-0.0244903564453125
423.632,0.035614013671875
423.642,0.08807373046875
423.652,0.1202392578125
423.662,0.127685546875
423.672,0.11395263671875
423.682,0.0863037109375
423.692,0.048828125
423.702,0.00288009643554688
423.712,-0.042449951171875
423.722,-0.0738525390625
423.732,-0.08642578125
423.742,-0.0869140625
423.752,-0.08282470703125
423.762,-0.07305908203125
423.772,-0.0531005859375
423.782,-0.023162841796875
423.792,0.00975799560546875
423.802,0.03582763671875
423.812,0.048583984375
423.822,0.040283203125
423.831,0.000175595283508301
423.841,-0.06866455078125
423.851,-0.1383056640625
423.861,-0.1668701171875
423.871,-0.126220703125
423.881,-0.025177001953125
423.891,0.09808349609375
423.901,0.200439453125
423.911,0.24853515625
423.921,0.2340087890625
423.931,0.187255859375
423.941,0.1591796875
423.951,0.1864013671875
423.961,0.267822265625
423.971,0.362548828125
423.981,0.40966796875
423.991,0.36328125
424.001,0.2132568359375
424.011,-0.0160064697265625
424.021,-0.28173828125
424.029,-0.53173828125
424.039,-0.7109375
424.049,-0.77587890625
424.059,-0.7060546875
424.069,-0.50830078125
424.079,-0.212646484375
424.089,0.131591796875
424.099,0.455322265625
424.109,0.68603515625
424.119,0.78662109375
424.129,0.7646484375
424.139,0.64990234375
424.149,0.469970703125
424.159,0.25537109375
424.169,0.037689208984375
424.179,-0.16455078125
424.189,-0.35400390625
424.199,-0.53076171875
424.209,-0.67724609375
424.219,-0.77783203125
424.223,-0.607421875
424.233,-0.395751953125
424.243,-0.09149169921875
424.253,0.312255859375
424.263,0.79150390625
424.273,1.296875
424.283,1.7822265625
424.293,2.212890625
424.303,2.572265625
424.313,2.873046875
424.323,3.140625
424.333,3.390625
424.343,3.6171875
424.353,3.810546875
424.363,3.95703125
424.373,4.01953125
424.382,3.9765625
424.392,3.857421875
424.402,3.716796875
424.412,3.6015625
424.422,3.5546875
424.432,3.62890625
424.442,3.845703125
424.452,4.1796875
424.462,4.5859375
424.472,5.0234375
424.482,5.39453125
424.492,5.58984375
424.502,5.5390625
424.512,5.2421875
424.522,4.734375
424.532,4.09375
424.542,3.419921875
424.552,2.783203125
424.562,2.23046875
424.572,1.8095703125
424.581,1.548828125
424.591,1.42578125
424.601,1.384765625
424.611,1.369140625
424.621,1.333984375
424.631,1.2529296875
424.641,1.1142578125
424.651,0.9140625
424.661,0.66796875
424.671,0.410888671875
424.681,0.19091796875
424.691,0.05462646484375
424.701,0.022247314453125
424.711,0.06951904296875
424.721,0.148193359375
424.731,0.218017578125
424.741,0.2509765625
424.751,0.2296142578125
424.761,0.1549072265625
424.771,0.047088623046875
424.779,-0.06536865234375
424.789,-0.15185546875
424.799,-0.191162109375
424.809,-0.1829833984375
424.819,-0.1337890625
424.829,-0.047515869140625
424.839,0.06146240234375
424.849,0.168701171875
424.859,0.25537109375
424.869,0.30419921875
424.879,0.298828125
424.889,0.244140625
424.899,0.1593017578125
424.909,0.059661865234375
424.919,-0.03961181640625
424.929,-0.1148681640625
424.939,-0.152099609375
424.949,-0.1573486328125
424.959,-0.13623046875
424.969,-0.089599609375
424.973,0.063232421875
424.983,0.05804443359375
424.993,0.05194091796875
425.003,0.04852294921875
425.013,0.047943115234375
425.023,0.057830810546875
425.033,0.07489013671875
425.043,0.07635498046875
425.053,0.049285888671875
425.063,0.006103515625
425.073,-0.035675048828125
425.083,-0.0672607421875
425.093,-0.0841064453125
425.103,-0.08233642578125
425.113,-0.061920166015625
425.123,-0.025390625
425.132,0.023040771484375
425.142,0.07159423828125
425.152,0.105712890625
425.162,0.12286376953125
425.172,0.1298828125
425.182,0.126953125
425.192,0.10858154296875
425.202,0.07470703125
425.212,0.030548095703125
425.222,-0.0246734619140625
425.232,-0.0933837890625
425.242,-0.1646728515625
425.252,-0.2177734375
425.262,-0.2384033203125
425.272,-0.2177734375
425.282,-0.1458740234375
425.292,-0.0294647216796875
425.302,0.09381103515625
425.312,0.1842041015625
425.322,0.2298583984375
425.33,0.2333984375
425.34,0.193603515625
425.35,0.11572265625
425.36,0.0241241455078125
425.37,-0.05413818359375
425.38,-0.1070556640625
425.39,-0.1312255859375
425.4,-0.1219482421875
425.41,-0.08343505859375
425.42,-0.033935546875
425.43,0.0132217407226562
425.44,0.05804443359375
425.45,0.0966796875
425.46,0.1043701171875
425.47,0.05126953125
425.48,-0.05975341796875
425.49,-0.1905517578125
425.5,-0.306396484375
425.51,-0.392578125
425.52,-0.435302734375
425.529,-0.419921875
425.539,-0.34814453125
425.549,-0.238037109375
425.559,-0.10638427734375
425.569,0.030059814453125
425.579,0.140625
425.589,0.19140625
425.599,0.17919921875
425.609,0.1396484375
425.619,0.1142578125
425.629,0.1177978515625
425.639,0.142333984375
425.649,0.175537109375
425.659,0.203369140625
425.669,0.2071533203125
425.679,0.1767578125
425.689,0.1217041015625
425.699,0.0548095703125
425.709,-0.027801513671875
425.719,-0.134033203125
425.723,-0.66064453125
425.733,-0.66796875
425.743,-0.57275390625
425.753,-0.371826171875
425.763,-0.129638671875
425.773,0.0694580078125
425.783,0.1900634765625
425.793,0.2425537109375
425.803,0.2454833984375
425.813,0.22021484375
425.823,0.1922607421875
425.833,0.1685791015625
425.843,0.1397705078125
425.853,0.1142578125
425.863,0.1202392578125
425.873,0.1668701171875
425.882,0.221923828125
425.892,0.231689453125
425.902,0.1634521484375
425.912,0.038177490234375
425.922,-0.08856201171875
425.932,-0.1822509765625
425.942,-0.25244140625
425.952,-0.325439453125
425.962,-0.41162109375
425.972,-0.4970703125
425.982,-0.5517578125
425.992,-0.55322265625
426.002,-0.497802734375
426.012,-0.39111328125
426.022,-0.2340087890625
426.032,-0.04376220703125
426.042,0.130126953125
426.052,0.2391357421875
426.062,0.276611328125
426.072,0.266845703125
426.08,0.2252197265625
426.09,0.1488037109375
426.1,0.0389404296875
426.11,-0.0718994140625
426.12,-0.1356201171875
426.13,-0.1400146484375
426.14,-0.12255859375
426.15,-0.12359619140625
426.16,-0.1466064453125
426.17,-0.1690673828125
426.18,-0.172119140625
426.19,-0.1634521484375
426.2,-0.16552734375
426.21,-0.177978515625
426.22,-0.1728515625
426.23,-0.1334228515625
426.24,-0.07501220703125
426.25,-0.0226898193359375
426.26,0.0167999267578125
426.27,0.05731201171875
426.279,0.10809326171875
426.289,0.150390625
426.299,0.1485595703125
426.309,0.0904541015625
426.319,0.000891685485839844
426.329,-0.08941650390625
426.339,-0.169677734375
426.349,-0.2379150390625
426.359,-0.27587890625
426.369,-0.2529296875
426.379,-0.159423828125
426.389,-0.0294342041015625
426.399,0.07635498046875
426.409,0.1142578125
426.419,0.08563232421875
426.429,0.0254669189453125
426.439,-0.033843994140625
426.449,-0.08624267578125
426.459,-0.14111328125
426.469,-0.203369140625
426.473,-0.71533203125
426.483,-0.8564453125
426.493,-0.98828125
426.503,-1.103515625
426.513,-1.208984375
426.523,-1.3134765625
426.533,-1.416015625
426.543,-1.5
426.553,-1.541015625
426.563,-1.5244140625
426.573,-1.4599609375
426.583,-1.3662109375
426.593,-1.25390625
426.603,-1.1337890625
426.613,-1.0126953125
426.623,-0.90869140625
426.632,-0.853515625
426.642,-0.8779296875
426.652,-0.98779296875
426.662,-1.1416015625
426.672,-1.2578125
426.682,-1.24609375
426.692,-1.0458984375
426.702,-0.671875
426.712,-0.21826171875
426.722,0.1922607421875
426.732,0.4560546875
426.742,0.513671875
426.752,0.3603515625
426.762,0.032257080078125
426.772,-0.39599609375
426.782,-0.794921875
426.792,-1.0087890625
426.802,-0.95947265625
426.812,-0.7294921875
426.822,-0.4931640625
426.83,-0.37548828125
426.84,-0.394287109375
426.85,-0.5009765625
426.86,-0.6279296875
426.87,-0.7177734375
426.88,-0.740234375
426.89,-0.69580078125
426.9,-0.6044921875
426.91,-0.489013671875
426.92,-0.368896484375
426.93,-0.259521484375
426.94,-0.1729736328125
426.95,-0.12890625
426.96,-0.1495361328125
426.97,-0.235595703125
426.98,-0.358642578125
426.99,-0.4794921875
427,-0.56982421875
427.01,-0.619140625
427.02,-0.64111328125
427.029,-0.6669921875
427.039,-0.71142578125
427.049,-0.76513671875
427.059,-0.80908203125
427.069,-0.8291015625
427.079,-0.82666015625
427.089,-0.80712890625
427.099,-0.78662109375
427.109,-0.79248046875
427.119,-0.85009765625
427.129,-0.96435546875
427.139,-1.119140625
427.149,-1.2822265625
427.159,-1.4091796875
427.169,-1.453125
427.179,-1.4013671875
427.189,-1.2919921875
427.199,-1.1689453125
427.209,-1.056640625
427.219,-0.974609375
427.223,-1.068359375
427.233,-1.08203125
427.243,-1.0947265625
427.253,-1.091796875
427.263,-1.0771484375
427.273,-1.0732421875
427.283,-1.0966796875
427.293,-1.1318359375
427.303,-1.158203125
427.313,-1.1787109375
427.323,-1.2060546875
427.333,-1.232421875
427.343,-1.234375
427.353,-1.2041015625
427.363,-1.166015625
427.373,-1.1376953125
427.382,-1.119140625
427.392,-1.10546875
427.402,-1.1025390625
427.412,-1.107421875
427.422,-1.115234375
427.432,-1.1328125
427.442,-1.1669921875
427.452,-1.212890625
427.462,-1.2490234375
427.472,-1.2626953125
427.482,-1.2451171875
427.492,-1.19921875
427.502,-1.1416015625
427.512,-1.0947265625
427.522,-1.0625
427.532,-1.0380859375
427.542,-1.0205078125
427.552,-1.01171875
427.562,-1.0029296875
427.572,-0.98388671875
427.58,-0.95849609375
427.59,-0.9453125
427.6,-0.95263671875
427.61,-0.970703125
427.62,-0.98583984375
427.63,-1
427.64,-1.0361328125
427.65,-1.1044921875
427.66,-1.1806640625
427.67,-1.2265625
427.68,-1.224609375
427.69,-1.1865234375
427.7,-1.1337890625
427.71,-1.072265625
427.72,-0.9970703125
427.73,-0.916015625
427.74,-0.8544921875
427.75,-0.83447265625
427.76,-0.8544921875
427.77,-0.89013671875
427.779,-0.92041015625
427.789,-0.94091796875
427.799,-0.96533203125
427.809,-0.99951171875
427.819,-1.02734375
427.829,-1.025390625
427.839,-0.97705078125
427.849,-0.89111328125
427.859,-0.8037109375
427.869,-0.7548828125
427.879,-0.7626953125
427.889,-0.82421875
427.899,-0.9140625
427.909,-0.9921875
427.919,-1.0234375
427.929,-0.99365234375
427.939,-0.90625
427.949,-0.78271484375
427.959,-0.66259765625
427.969,-0.58154296875
427.973,-1.103515625
427.983,-1.3701171875
427.993,-1.6376953125
428.003,-1.8642578125
428.013,-2.021484375
428.023,-2.09765625
428.033,-2.1015625
428.043,-2.06640625
428.053,-2.037109375
428.063,-2.052734375
428.073,-2.126953125
428.083,-2.251953125
428.093,-2.40234375
428.103,-2.548828125
428.113,-2.66796875
428.123,-2.751953125
428.132,-2.798828125
428.142,-2.8046875
428.152,-2.765625
428.162,-2.68359375
428.172,-2.55859375
428.182,-2.39453125
428.192,-2.205078125
428.202,-2.005859375
428.212,-1.8115234375
428.222,-1.63671875
428.232,-1.4931640625
428.242,-1.3798828125
428.252,-1.2880859375
428.262,-1.2138671875
428.272,-1.1572265625
428.282,-1.12109375
428.292,-1.109375
428.302,-1.1279296875
428.312,-1.189453125
428.322,-1.3076171875
428.33,-1.4873046875
428.34,-1.7138671875
428.35,-1.95703125
428.36,-2.17578125
428.37,-2.326171875
428.38,-2.373046875
428.39,-2.291015625
428.4,-2.08203125
428.41,-1.75390625
428.42,-1.3271484375
428.43,-0.8359375
428.44,-0.32421875
428.45,0.163818359375
428.46,0.599609375
428.47,0.97412109375
428.48,1.2919921875
428.49,1.5625
428.5,1.7919921875
428.51,1.9833984375
428.52,2.12890625
428.529,2.224609375
428.539,2.27734375
428.549,2.302734375
428.559,2.328125
428.569,2.37109375
428.579,2.4296875
428.589,2.4921875
428.599,2.546875
428.609,2.583984375
428.619,2.6015625
428.629,2.615234375
428.639,2.646484375
428.649,2.708984375
428.659,2.80078125
428.669,2.90625
428.679,2.9921875
428.689,3.0234375
428.699,2.9921875
428.709,2.912109375
428.719,2.81640625
428.723,2.9375
428.733,3.08984375
428.743,3.234375
428.753,3.341796875
428.763,3.390625
428.773,3.375
428.783,3.3046875
428.793,3.2109375
428.803,3.119140625
428.813,3.029296875
428.823,2.921875
428.833,2.765625
428.843,2.529296875
428.853,2.19140625
428.863,1.7470703125
428.873,1.212890625
428.882,0.62255859375
428.892,0.017913818359375
428.902,-0.56591796875
428.912,-1.109375
428.922,-1.6044921875
428.932,-2.037109375
428.942,-2.396484375
428.952,-2.671875
428.962,-2.859375
428.972,-2.96875
428.982,-3.017578125
428.992,-3.017578125
429.002,-2.9765625
429.012,-2.8828125
429.022,-2.72265625
429.032,-2.470703125
429.042,-2.115234375
429.052,-1.642578125
429.062,-1.0576171875
429.072,-0.38720703125
429.08,0.32666015625
429.09,1.0341796875
429.1,1.6845703125
429.11,2.212890625
429.12,2.544921875
429.13,2.615234375
429.14,2.380859375
429.15,1.8447265625
429.16,1.064453125
429.17,0.143798828125
429.18,-0.79052734375
429.19,-1.6123046875
429.2,-2.22265625
429.21,-2.57421875
429.22,-2.654296875
429.23,-2.4765625
429.24,-2.083984375
429.25,-1.5322265625
429.26,-0.89306640625
429.27,-0.22314453125
429.279,0.44677734375
429.289,1.1015625
429.299,1.7138671875
429.309,2.232421875
429.319,2.583984375
429.329,2.69921875
429.339,2.537109375
429.349,2.1015625
429.359,1.44921875
429.369,0.6591796875
429.379,-0.1812744140625
429.389,-0.98681640625
429.399,-1.6826171875
429.409,-2.216796875
429.419,-2.552734375
429.429,-2.658203125
429.439,-2.515625
429.449,-2.123046875
429.459,-1.5107421875
429.469,-0.73583984375
429.473,1.0751953125
429.483,0.53173828125
429.493,-0.10797119140625
429.503,-0.6689453125
429.513,-1.00390625
429.523,-1.0322265625
429.533,-0.7783203125
429.543,-0.375732421875
429.553,-0.015533447265625
429.563,0.15869140625
429.573,0.11676025390625
429.583,-0.0614013671875
429.593,-0.240478515625
429.603,-0.30126953125
429.613,-0.2030029296875
429.623,-0.00815582275390625
429.631,0.1556396484375
429.641,0.179931640625
429.651,0.042266845703125
429.661,-0.1864013671875
429.671,-0.38720703125
429.681,-0.465087890625
429.691,-0.407470703125
429.701,-0.28466796875
429.711,-0.1865234375
429.721,-0.1497802734375
429.731,-0.142578125
429.741,-0.10931396484375
429.751,-0.03167724609375
429.761,0.049407958984375
429.771,0.07354736328125
429.781,0.022979736328125
429.791,-0.06011962890625
429.801,-0.1109619140625
429.811,-0.09869384765625
429.821,-0.052703857421875
429.83,-0.023834228515625
429.84,-0.0244598388671875
429.85,-0.0195770263671875
429.86,0.0306396484375
429.87,0.12396240234375
429.88,0.2095947265625
429.89,0.234130859375
429.9,0.193603515625
429.91,0.135986328125
429.92,0.10589599609375
429.93,0.09649658203125
429.94,0.06427001953125
429.95,-0.012847900390625
429.96,-0.1015625
429.97,-0.1492919921875
429.98,-0.1497802734375
429.99,-0.1407470703125
430,-0.1434326171875
430.01,-0.134765625
430.02,-0.08282470703125
430.029,0.000753879547119141
430.039,0.06280517578125
430.049,0.0726318359375
430.059,0.060882568359375
430.069,0.07501220703125
430.079,0.113037109375
430.089,0.128173828125
430.099,0.09600830078125
430.109,0.04608154296875
430.119,0.0199127197265625
430.129,0.0171966552734375
430.139,0.00749969482421875
430.149,-0.0154037475585938
430.159,-0.0251617431640625
430.169,-0.00725555419921875
430.179,0.020721435546875
430.189,0.041107177734375
430.199,0.0626220703125
430.209,0.09649658203125
430.219,0.1298828125
430.223,0.0765380859375
430.233,0.04022216796875
430.243,0.0122451782226562
430.253,0.00142955780029297
430.263,0.00957489013671875
430.273,0.03594970703125
430.283,0.073486328125
430.293,0.107421875
430.303,0.125
430.313,0.12213134765625
430.323,0.0966796875
430.333,0.043853759765625
430.343,-0.03253173828125
430.353,-0.11065673828125
430.363,-0.1673583984375
430.373,-0.1959228515625
430.381,-0.1971435546875
430.391,-0.169677734375
430.401,-0.11663818359375
430.411,-0.046417236328125
430.421,0.0292816162109375
430.431,0.09490966796875
430.441,0.138671875
430.451,0.1588134765625
430.461,0.1558837890625
430.471,0.12841796875
430.481,0.08062744140625
430.491,0.0260009765625
430.501,-0.0228271484375
430.511,-0.05841064453125
430.521,-0.07647705078125
430.531,-0.07586669921875
430.541,-0.05767822265625
430.551,-0.0265655517578125
430.561,0.00803375244140625
430.571,0.036407470703125
430.58,0.051727294921875
430.59,0.05035400390625
430.6,0.0330810546875
430.61,0.00484848022460938
430.62,-0.0273895263671875
430.63,-0.057159423828125
430.64,-0.08074951171875
430.65,-0.094970703125
430.66,-0.09765625
430.67,-0.09124755859375
430.68,-0.080078125
430.69,-0.06744384765625
430.7,-0.056854248046875
430.71,-0.0491943359375
430.72,-0.044097900390625
430.73,-0.04547119140625
430.74,-0.059478759765625
430.75,-0.0865478515625
430.76,-0.11669921875
430.77,-0.138427734375
430.779,-0.1474609375
430.789,-0.14208984375
430.799,-0.11871337890625
430.809,-0.0767822265625
430.819,-0.0218048095703125
430.829,0.032745361328125
430.839,0.06671142578125
430.849,0.0631103515625
430.859,0.0204925537109375
430.869,-0.0438232421875
430.879,-0.10394287109375
430.889,-0.1400146484375
430.899,-0.147216796875
430.909,-0.1317138671875
430.919,-0.10137939453125
430.929,-0.060943603515625
430.939,-0.012908935546875
430.949,0.04248046875
430.959,0.102294921875
430.969,0.1534423828125
430.973,-0.00047612190246582
430.983,-0.040008544921875
430.993,-0.05963134765625
431.003,-0.06439208984375
431.013,-0.0653076171875
431.023,-0.07061767578125
431.033,-0.08306884765625
431.043,-0.1009521484375
431.053,-0.11993408203125
431.063,-0.1353759765625
431.073,-0.14453125
431.083,-0.1470947265625
431.093,-0.143798828125
431.103,-0.134521484375
431.113,-0.11920166015625
431.123,-0.0980224609375
431.131,-0.072998046875
431.141,-0.04669189453125
431.151,-0.019622802734375
431.161,0.00884246826171875
431.171,0.036041259765625
431.181,0.05340576171875
431.191,0.050628662109375
431.201,0.0246429443359375
431.211,-0.017578125
431.221,-0.0625
431.231,-0.0972900390625
431.241,-0.11724853515625
431.251,-0.12451171875
431.261,-0.12139892578125
431.271,-0.106689453125
431.281,-0.077392578125
431.291,-0.035064697265625
431.301,0.0137863159179688
431.311,0.062744140625
431.321,0.10699462890625
431.33,0.1390380859375
431.34,0.149169921875
431.35,0.133056640625
431.36,0.09429931640625
431.37,0.039947509765625
431.38,-0.019805908203125
431.39,-0.0718994140625
431.4,-0.10760498046875
431.41,-0.1263427734375
431.42,-0.1302490234375
431.43,-0.12054443359375
431.44,-0.1007080078125
431.45,-0.07940673828125
431.46,-0.06207275390625
431.47,-0.046478271484375
431.48,-0.0302886962890625
431.49,-0.0125045776367188
431.5,0.009735107421875
431.51,0.035400390625
431.52,0.058258056640625
431.529,0.0753173828125
431.539,0.086181640625
431.549,0.08612060546875
431.559,0.07122802734375
431.569,0.047637939453125
431.579,0.0264739990234375
431.589,0.0121917724609375
431.599,0.00167369842529297
431.609,-0.0138092041015625
431.619,-0.049102783203125
431.629,-0.11273193359375
431.639,-0.1890869140625
431.649,-0.2471923828125
431.659,-0.27001953125
431.669,-0.258544921875
431.679,-0.2198486328125
431.689,-0.175048828125
431.699,-0.1541748046875
431.709,-0.170166015625
431.719,-0.2120361328125
431.723,0.166748046875
431.733,0.34375
431.743,0.450927734375
431.753,0.45947265625
431.763,0.361083984375
431.773,0.1732177734375
431.783,-0.059173583984375
431.793,-0.276123046875
431.803,-0.4267578125
431.813,-0.493408203125
431.823,-0.49267578125
431.833,-0.449951171875
431.843,-0.38330078125
431.853,-0.3154296875
431.863,-0.271728515625
431.873,-0.262451171875
431.881,-0.27880859375
431.891,-0.29931640625
431.901,-0.295166015625
431.911,-0.2396240234375
431.921,-0.1256103515625
431.931,0.021331787109375
431.941,0.1630859375
431.951,0.27490234375
431.961,0.339599609375
431.971,0.337158203125
431.981,0.259033203125
431.991,0.11773681640625
432.001,-0.056549072265625
432.011,-0.2191162109375
432.021,-0.332275390625
432.031,-0.384765625
432.041,-0.387451171875
432.051,-0.35986328125
432.061,-0.31640625
432.071,-0.264892578125
432.08,-0.214111328125
432.09,-0.1749267578125
432.1,-0.15185546875
432.11,-0.140625
432.12,-0.132568359375
432.13,-0.1263427734375
432.14,-0.1248779296875
432.15,-0.12017822265625
432.16,-0.10333251953125
432.17,-0.08465576171875
432.18,-0.0921630859375
432.19,-0.1505126953125
432.2,-0.257568359375
432.21,-0.375732421875
432.22,-0.4541015625
432.23,-0.464111328125
432.24,-0.409423828125
432.25,-0.316162109375
432.26,-0.2130126953125
432.27,-0.11834716796875
432.279,-0.043609619140625
432.289,0.00234222412109375
432.299,0.019134521484375
432.309,0.0113677978515625
432.319,-0.016693115234375
432.329,-0.058685302734375
432.339,-0.10760498046875
432.349,-0.1600341796875
432.359,-0.21435546875
432.369,-0.27001953125
432.379,-0.327392578125
432.389,-0.37744140625
432.399,-0.400390625
432.409,-0.380859375
432.419,-0.318115234375
432.429,-0.222412109375
432.439,-0.117431640625
432.449,-0.03564453125
432.459,0.00196647644042969
432.469,0.00139904022216797
432.473,-0.0192413330078125
432.483,-0.047393798828125
432.493,-0.09130859375
432.503,-0.1422119140625
432.513,-0.190185546875
432.523,-0.2314453125
432.533,-0.263916015625
432.543,-0.281494140625
432.553,-0.28271484375
432.563,-0.274658203125
432.573,-0.26318359375
432.583,-0.25244140625
432.593,-0.24365234375
432.603,-0.2281494140625
432.613,-0.1937255859375
432.623,-0.134033203125
432.631,-0.055450439453125
432.641,0.01806640625
432.651,0.0555419921875
432.661,0.04364013671875
432.671,-0.0088958740234375
432.681,-0.0888671875
432.691,-0.185546875
432.701,-0.28515625
432.711,-0.3759765625
432.721,-0.447998046875
432.731,-0.484130859375
432.741,-0.470703125
432.751,-0.416259765625
432.761,-0.340576171875
432.771,-0.262939453125
432.781,-0.2017822265625
432.791,-0.1641845703125
432.801,-0.141357421875
432.811,-0.11962890625
432.821,-0.08551025390625
432.83,-0.02850341796875
432.84,0.0465087890625
432.85,0.11767578125
432.86,0.156005859375
432.87,0.137939453125
432.88,0.0570068359375
432.89,-0.07672119140625
432.9,-0.246337890625
432.91,-0.4287109375
432.92,-0.5966796875
432.93,-0.7265625
432.94,-0.80419921875
432.95,-0.81787109375
432.96,-0.76171875
432.97,-0.64697265625
432.98,-0.53271484375
432.99,-0.5029296875
433,-0.56591796875
433.01,-0.65234375
433.02,-0.7138671875
433.029,-0.72314453125
433.039,-0.64599609375
433.049,-0.475830078125
433.059,-0.2432861328125
433.069,0.00799560546875
433.079,0.220458984375
433.089,0.34765625
433.099,0.379638671875
433.109,0.30322265625
433.119,0.07965087890625
433.129,-0.27734375
433.139,-0.6416015625
433.149,-0.86376953125
433.159,-0.90234375
433.169,-0.8154296875
433.179,-0.6650390625
433.189,-0.4951171875
433.199,-0.354248046875
433.209,-0.2734375
433.219,-0.2496337890625
433.223,0.1253662109375
433.233,0.447998046875
433.243,0.69775390625
433.253,0.74365234375
433.263,0.56494140625
433.273,0.25927734375
433.283,-0.041046142578125
433.293,-0.2509765625
433.303,-0.36767578125
433.313,-0.45947265625
433.323,-0.6005859375
433.333,-0.802734375
433.343,-1.0107421875
433.353,-1.1484375
433.363,-1.142578125
433.373,-0.9521484375
433.381,-0.58056640625
433.391,-0.06707763671875
433.401,0.47314453125
433.411,0.85888671875
433.421,0.94140625
433.431,0.70654296875
433.441,0.2783203125
433.451,-0.1578369140625
433.461,-0.451904296875
433.471,-0.5341796875
433.481,-0.4140625
433.491,-0.161376953125
433.501,0.124267578125
433.511,0.358154296875
433.521,0.5048828125
433.531,0.564453125
433.541,0.53369140625
433.551,0.3935546875
433.561,0.13818359375
433.571,-0.190673828125
433.58,-0.51806640625
433.59,-0.775390625
433.6,-0.9169921875
433.61,-0.921875
433.62,-0.80419921875
433.63,-0.6103515625
433.64,-0.40478515625
433.65,-0.251220703125
433.66,-0.185546875
433.67,-0.2056884765625
433.68,-0.296875
433.69,-0.455078125
433.7,-0.681640625
433.71,-0.9619140625
433.72,-1.2470703125
433.73,-1.4716796875
433.74,-1.5927734375
433.75,-1.599609375
433.76,-1.50390625
433.77,-1.34375
433.775,-1.0751953125
433.785,-1.1298828125
433.795,-1.162109375
433.805,-1.150390625
433.815,-1.0830078125
433.825,-0.966796875
433.835,-0.8310546875
433.845,-0.7060546875
433.855,-0.61572265625
433.865,-0.58251953125
433.875,-0.6240234375
433.885,-0.7333984375
433.895,-0.8837890625
433.905,-1.0419921875
433.915,-1.1748046875
433.925,-1.2529296875
433.932,-1.263671875
433.942,-1.20703125
433.952,-1.1015625
433.962,-0.98583984375
433.972,-0.89794921875
433.982,-0.85302734375
433.992,-0.85498046875
434.002,-0.9033203125
434.012,-0.9833984375
434.022,-1.068359375
434.032,-1.130859375
434.042,-1.1474609375
434.052,-1.1123046875
434.062,-1.03515625
434.072,-0.935546875
434.082,-0.8369140625
434.092,-0.75732421875
434.102,-0.7099609375
434.112,-0.701171875
434.122,-0.72509765625
434.131,-0.7724609375
434.141,-0.83154296875
434.151,-0.890625
434.161,-0.9404296875
434.171,-0.974609375
434.181,-0.98974609375
434.191,-0.9892578125
434.201,-0.9775390625
434.211,-0.9580078125
434.221,-0.93359375
434.231,-0.90771484375
434.241,-0.88330078125
434.251,-0.861328125
434.261,-0.8388671875
434.271,-0.81494140625
434.281,-0.7939453125
434.291,-0.783203125
434.301,-0.7841796875
434.311,-0.78955078125
434.321,-0.791015625
434.33,-0.77978515625
434.34,-0.75390625
434.35,-0.7197265625
434.36,-0.689453125
434.37,-0.673828125
434.38,-0.68310546875
434.39,-0.7216796875
434.4,-0.78125
434.41,-0.84228515625
434.42,-0.88330078125
434.43,-0.88330078125
434.44,-0.826171875
434.45,-0.7119140625
434.46,-0.56396484375
434.47,-0.42041015625
434.48,-0.3203125
434.49,-0.28515625
434.5,-0.30712890625
434.51,-0.3564453125
434.52,-0.39794921875
434.524,-0.25
434.534,-0.1986083984375
434.544,-0.1536865234375
434.554,-0.10894775390625
434.564,-0.06854248046875
434.574,-0.04486083984375
434.584,-0.049560546875
434.594,-0.08941650390625
434.604,-0.161376953125
434.614,-0.245849609375
434.624,-0.317626953125
434.634,-0.364501953125
434.644,-0.38720703125
434.654,-0.3916015625
434.664,-0.385009765625
434.674,-0.37353515625
434.682,-0.360595703125
434.692,-0.34326171875
434.702,-0.314697265625
434.712,-0.278076171875
434.722,-0.2470703125
434.732,-0.23046875
434.742,-0.230712890625
434.752,-0.2421875
434.762,-0.250244140625
434.772,-0.23828125
434.782,-0.1961669921875
434.792,-0.1268310546875
434.802,-0.0513916015625
434.812,0.0038909912109375
434.822,0.0250396728515625
434.832,0.0149002075195312
434.842,-0.0106048583984375
434.852,-0.0306396484375
434.862,-0.033660888671875
434.872,-0.022003173828125
434.881,-0.00239372253417969
434.891,0.0175628662109375
434.901,0.023895263671875
434.911,-0.00439453125
434.921,-0.08416748046875
434.931,-0.2073974609375
434.941,-0.336181640625
434.951,-0.42919921875
434.961,-0.462646484375
434.971,-0.4296875
434.981,-0.340576171875
434.991,-0.22021484375
435.001,-0.09368896484375
435.011,0.017913818359375
435.021,0.09649658203125
435.031,0.1309814453125
435.041,0.11883544921875
435.051,0.06463623046875
435.061,-0.020355224609375
435.071,-0.125
435.08,-0.2403564453125
435.09,-0.34912109375
435.1,-0.4267578125
435.11,-0.452392578125
435.12,-0.412353515625
435.13,-0.311767578125
435.14,-0.1751708984375
435.15,-0.03466796875
435.16,0.074951171875
435.17,0.12213134765625
435.18,0.0880126953125
435.19,-0.02911376953125
435.2,-0.1998291015625
435.21,-0.36083984375
435.22,-0.44873046875
435.23,-0.4287109375
435.24,-0.302001953125
435.25,-0.1068115234375
435.26,0.10992431640625
435.27,0.319091796875
435.275,0.3388671875
435.285,0.0858154296875
435.295,-0.1923828125
435.305,-0.437255859375
435.315,-0.58642578125
435.325,-0.60400390625
435.335,-0.5009765625
435.345,-0.32568359375
435.355,-0.1343994140625
435.365,0.0196075439453125
435.375,0.10101318359375
435.385,0.10894775390625
435.395,0.0684814453125
435.405,0.00585556030273438
435.415,-0.057891845703125
435.425,-0.10662841796875
435.432,-0.1402587890625
435.442,-0.1715087890625
435.452,-0.2039794921875
435.462,-0.2266845703125
435.472,-0.22705078125
435.482,-0.1986083984375
435.492,-0.1424560546875
435.502,-0.0716552734375
435.512,-0.010009765625
435.522,0.0198211669921875
435.532,0.0046844482421875
435.542,-0.05377197265625
435.552,-0.13916015625
435.562,-0.2286376953125
435.572,-0.300048828125
435.582,-0.335205078125
435.592,-0.32177734375
435.602,-0.25732421875
435.612,-0.156982421875
435.622,-0.053253173828125
435.631,0.017791748046875
435.641,0.032806396484375
435.651,-0.00792694091796875
435.661,-0.07904052734375
435.671,-0.1463623046875
435.681,-0.1929931640625
435.691,-0.2269287109375
435.701,-0.254638671875
435.711,-0.263427734375
435.721,-0.2413330078125
435.731,-0.1951904296875
435.741,-0.1461181640625
435.751,-0.11798095703125
435.761,-0.1280517578125
435.771,-0.1767578125
435.781,-0.243896484375
435.791,-0.297119140625
435.801,-0.314453125
435.811,-0.298583984375
435.821,-0.26318359375
435.83,-0.21728515625
435.84,-0.17236328125
435.85,-0.1434326171875
435.86,-0.1292724609375
435.87,-0.117431640625
435.88,-0.10870361328125
435.89,-0.1165771484375
435.9,-0.142822265625
435.91,-0.1712646484375
435.92,-0.18701171875
435.93,-0.1885986328125
435.94,-0.1763916015625
435.95,-0.14990234375
435.96,-0.1151123046875
435.97,-0.0771484375
435.98,-0.03411865234375
435.99,0.00913238525390625
436,0.0333251953125
436.01,0.021728515625
436.02,-0.024810791015625
436.024,-0.1505126953125
436.034,-0.1060791015625
436.044,-0.0635986328125
436.054,-0.0237274169921875
436.064,0.0100860595703125
436.074,0.033416748046875
436.084,0.0472412109375
436.094,0.048431396484375
436.104,0.0283203125
436.114,-0.0136871337890625
436.124,-0.06988525390625
436.134,-0.1351318359375
436.144,-0.2012939453125
436.154,-0.24658203125
436.164,-0.2467041015625
436.174,-0.199462890625
436.182,-0.1279296875
436.192,-0.059539794921875
436.202,-0.00749588012695312
436.212,0.0230865478515625
436.222,0.02581787109375
436.232,0.000498294830322266
436.242,-0.034454345703125
436.252,-0.057373046875
436.262,-0.07342529296875
436.272,-0.10784912109375
436.282,-0.1671142578125
436.292,-0.2252197265625
436.302,-0.251953125
436.312,-0.240478515625
436.322,-0.2001953125
436.332,-0.1405029296875
436.342,-0.06976318359375
436.352,-0.00585556030273438
436.362,0.02642822265625
436.372,0.0127792358398438
436.381,-0.036468505859375
436.391,-0.0955810546875
436.401,-0.1441650390625
436.411,-0.1749267578125
436.421,-0.185302734375
436.431,-0.1656494140625
436.441,-0.10223388671875
436.451,-0.00177383422851562
436.461,0.09613037109375
436.471,0.1436767578125
436.481,0.120361328125
436.491,0.0404052734375
