Time,GyroX
288.3,12.8100004196167
288.31,20.9600009918213
288.32,12.7700004577637
288.33,23.5200004577637
288.34,45.1800003051758
288.35,35
288.36,4.44000005722046
288.37,-12.2100009918213
288.379,-37.2400016784668
288.389,-23.5500011444092
288.399,1.15000009536743
288.409,-1.05000007152557
288.419,-6.79000043869019
288.429,-14.5600004196167
288.439,-18.7600002288818
288.449,-8.78000068664551
288.459,20.2600002288818
288.469,37.8000030517578
288.479,7.73000049591064
288.489,-10.5000009536743
288.499,26.3500003814697
288.509,26.0000019073486
288.519,34.3300018310547
288.529,4.8600001335144
288.539,-4.26999998092651
288.549,28.1000003814697
288.559,20.5400009155273
288.569,-3.92000007629395
288.573,7.66000032424927
288.583,13.5400009155273
288.593,26.7000007629395
288.603,31.5000019073486
288.613,13.7900009155273
288.623,-4.13000011444092
288.633,-25.3700008392334
288.643,-11.8600006103516
288.653,-1.19000005722046
288.663,28.310001373291
288.673,-26.2500019073486
288.683,-43.8900032043457
288.693,-36.6100006103516
288.703,-5.32000017166138
288.713,11.5500001907349
288.723,3.1100001335144
288.732,-28.8700008392334
288.742,37.5200004577637
288.752,36.1900024414062
288.762,22.0800018310547
288.772,17.810001373291
288.782,4.58000040054321
288.792,9.24000072479248
288.802,28.7000007629395
288.812,9.03000068664551
288.822,-11.2000007629395
288.832,-22.8900012969971
288.842,-21.2100009918213
288.852,22.5400009155273
288.862,28.2800006866455
288.872,25.1300010681152
288.882,12.3500003814697
288.892,3.25000023841858
288.902,19.6300010681152
288.912,56.3500022888184
288.922,18.060001373291
288.93,16.8700008392334
288.94,-3.1800000667572
288.95,41.5800018310547
288.96,41.7900009155273
288.97,14.8700008392334
288.98,2.87000012397766
288.99,25.7200012207031
289,29.5000019073486
289.01,48.8200035095215
289.02,50.680004119873
289.03,35.6300010681152
289.04,12.0700006484985
289.05,3.67000007629395
289.06,15.4700002670288
289.07,-17.25
289.08,-32.7200012207031
289.09,-13.9300003051758
289.1,-0.100000001490116
289.11,13.4400005340576
289.12,44.4500007629395
289.129,27.3300018310547
289.139,0.170000001788139
289.149,36.0800018310547
289.159,54.0700035095215
289.169,62.120002746582
289.179,40.2500038146973
289.189,15.0800008773804
289.199,-5.67000007629395
289.209,-12.0400009155273
289.219,14.4200010299683
289.229,7.73000049591064
289.239,-19.4600009918213
289.249,-9.76000022888184
289.259,28.4200019836426
289.269,50.5700035095215
289.279,40.9100036621094
289.289,11.4400005340576
289.299,37.0300025939941
289.309,53.370002746582
289.319,52.1500015258789
289.323,-4.0600004196167
289.333,17.1800003051758
289.343,0.730000019073486
289.353,14.9800004959106
289.363,44.310001373291
289.373,38.1800003051758
289.383,36.8900032043457
289.393,66.5699996948242
289.403,-4.44000005722046
289.413,0.350000023841858
289.423,-14.6600008010864
289.433,-17.2200012207031
289.443,14.4900007247925
289.453,2.55000019073486
289.463,12.3200006484985
289.473,48.0900039672852
289.482,68.1800003051758
289.492,95.1600036621094
289.502,100.340003967285
289.512,57.8500022888184
289.522,54.2100028991699
289.532,21.1700000762939
289.542,-3.08000016212463
289.552,-30.3800010681152
289.562,-78.9900054931641
289.572,-75.7400054931641
289.582,-52.430004119873
289.592,-27.3000011444092
289.602,3.88000011444092
289.612,7.5600004196167
289.622,1.75000011920929
289.632,20.3700008392334
289.642,5.74000024795532
289.652,-10.6700000762939
289.662,0.560000002384186
289.672,-8.92000007629395
289.68,23.0300006866455
289.69,50.2600021362305
289.7,69.9300003051758
289.71,100.660003662109
289.72,104.160003662109
289.73,126.940002441406
289.74,141.75
289.75,133.980010986328
289.76,123.51000213623
289.77,90.2300033569336
289.78,37.4100036621094
289.79,15.7800006866455
289.8,-44.9000015258789
289.81,-102.93000793457
289.82,-118.720008850098
289.83,-142.34001159668
289.84,-152.280014038086
289.85,-101.150001525879
289.86,-92.6800079345703
289.87,-10.7800006866455
289.879,21.7700004577637
289.889,60.7900047302246
289.899,96.0700073242188
289.909,86.2700042724609
289.919,74.2000045776367
289.929,63.5900039672852
289.939,51.9700012207031
289.949,43.1900024414062
289.959,20.2600002288818
289.969,30.2000007629395
289.979,31.6700019836426
289.989,28.9400005340576
289.999,23.2400016784668
290.009,48.5800018310547
290.019,11.5500001907349
290.029,-5.49000024795532
290.039,-18.4100017547607
290.049,-59.0100021362305
290.059,-57.5400009155273
290.069,-49.2400016784668
290.073,63.3500022888184
290.083,68.9500045776367
290.093,75.9800033569336
290.103,75.4900054931641
290.113,60.6500015258789
290.123,62.7200012207031
290.133,51.1300010681152
290.143,37.060001373291
290.153,48.5800018310547
290.163,51.060001373291
290.173,41.8600006103516
290.183,45.9200019836426
290.193,37.1300010681152
290.203,36.5
290.213,35.4200019836426
290.223,7.3100004196167
290.232,-10.710000038147
290.242,-16.9400005340576
290.252,-44.2000007629395
290.262,-37.0300025939941
290.272,-27.6100006103516
290.282,-27.3300018310547
290.292,-7.10000038146973
290.302,15.4000005722046
290.312,37.7600021362305
290.322,77.7000045776367
290.332,98.9800033569336
290.342,115.220008850098
290.352,120.750007629395
290.362,100.940002441406
290.372,100.450004577637
290.382,90.1900024414062
290.392,34.120002746582
290.402,5.21000003814697
290.412,-26.0700016021729
290.422,-64.6800003051758
290.43,-86.8000030517578
290.44,-122.850006103516
290.45,-140.980010986328
290.46,-103.250007629395
290.47,-80.9500045776367
290.48,-9.73000049591064
290.49,49.1000022888184
290.5,71.5400009155273
290.51,128.450012207031
290.52,146.93000793457
290.53,138.630004882812
290.54,153.650009155273
290.55,91.5600051879883
290.56,23.1700019836426
290.57,-22.0800018310547
290.58,-64.9900054931641
290.59,-73.9500045776367
290.6,-79.8000030517578
290.61,-106.710006713867
290.62,-103.880004882812
290.629,-98.6300048828125
290.639,-66.9200057983398
290.649,-13.2300004959106
290.659,14.7300004959106
290.669,33.3199996948242
290.679,66.1800003051758
290.689,86.4500045776367
290.699,115.080001831055
290.709,121.17000579834
290.719,87.8100051879883
290.729,105.590003967285
290.739,103.110008239746
290.749,104.090003967285
290.759,116.480003356934
290.769,92.1500015258789
290.779,36.0500030517578
290.789,3.25000023841858
290.799,-49.7300033569336
290.809,-82.5600051879883
290.819,-84.7300033569336
290.824,54.810001373291
290.834,48.0200004577637
290.844,53.620002746582
290.854,58.1700019836426
290.864,9.48000049591064
290.874,-24.1800003051758
290.884,-48.6100006103516
290.894,-31.5000019073486
290.904,8.47000026702881
290.914,37.9000015258789
290.924,37.1300010681152
290.934,57.1500015258789
290.944,57.1500015258789
290.954,38.810001373291
290.964,7.52000045776367
290.974,-35.5200004577637
290.982,-59.3200035095215
290.992,-67.7600021362305
291.002,-87.5000076293945
291.012,-83.890007019043
291.022,-62.4400024414062
291.032,-30.5500011444092
291.042,-26.2500019073486
291.052,23.4100017547607
291.062,99.890007019043
291.072,154.030014038086
291.082,174.68000793457
291.092,176.890014648438
291.102,120.570007324219
291.112,124.810005187988
291.122,146.510009765625
291.132,79.3800048828125
291.142,-37.2000007629395
291.152,-180.420013427734
291.162,-268.240020751953
291.172,-304.430023193359
291.18,-311.670013427734
291.19,-293.300018310547
291.2,-262.950012207031
291.21,-197.710006713867
291.22,-100.060005187988
291.23,12.1100006103516
291.24,113.500007629395
291.25,194.18000793457
291.26,260.890014648438
291.27,299.490020751953
291.28,328.890014648438
291.29,332.810028076172
291.3,275.52001953125
291.31,170.940002441406
291.32,74.3000030517578
291.33,81.370002746582
291.34,100.76000213623
291.35,96.2500076293945
291.36,108.92000579834
291.37,168.910003662109
291.379,191.900009155273
291.389,239.920013427734
291.399,236.530014038086
291.409,198.59001159668
291.419,148.290008544922
291.429,125.230003356934
291.439,91.4900054931641
291.449,34.120002746582
291.459,-43.2900009155273
291.469,-30.9400005340576
291.479,-2.69000005722046
291.489,-1.64000010490417
291.499,-10.8800001144409
291.509,-56.870002746582
291.519,-32.3000030517578
291.529,-10.2200002670288
291.539,-16.3800010681152
291.549,-33.9800033569336
291.559,-51.4800033569336
291.569,-56.7300033569336
291.573,-133.630004882812
291.583,-91.9800033569336
291.593,-73.5699996948242
291.603,-69.7200012207031
291.613,-44.6900024414062
291.623,9.80000019073486
291.633,22.1900005340576
291.643,17.6700000762939
291.653,-0.490000009536743
291.663,-6.72000026702881
291.673,1.19000005722046
291.683,20.7900009155273
291.693,39.2700004577637
291.703,57.3600044250488
291.713,57.9900016784668
291.723,58.4100036621094
291.732,41.8600006103516
291.742,13.5100002288818
291.752,3.50000023841858
291.762,22.1900005340576
291.772,33.3500022888184
291.782,44.9400024414062
291.792,52.5000038146973
291.802,66.9200057983398
291.812,96.6300048828125
291.822,129.920013427734
291.832,147.310012817383
291.842,155.290008544922
291.852,141.120010375977
291.862,117.18000793457
291.872,88.9300079345703
291.882,52.7100028991699
291.892,24.5000019073486
291.902,23.3800010681152
291.912,56.1400032043457
291.922,50.8200035095215
291.93,33.0699996948242
291.94,8.61000061035156
291.95,-26.7700004577637
291.96,-51.2000007629395
291.97,-101.530006408691
291.98,-156.200012207031
291.99,-215.810012817383
292,-228.160003662109
292.01,-197.190002441406
292.02,-172.860000610352
292.03,-104.120002746582
292.04,-61.3900032043457
292.05,-13.4000005722046
292.06,46.5800018310547
292.07,92.2600021362305
292.08,133.59001159668
292.09,171.920013427734
292.1,137.860000610352
292.11,113.780006408691
292.12,141.540008544922
292.129,139.370010375977
292.139,127.92000579834
292.149,116.790008544922
292.159,78.8200073242188
292.169,47.4200019836426
292.179,32.8300018310547
292.189,4.0600004196167
292.199,-32.3000030517578
292.209,-36.9200019836426
292.219,0.100000001490116
292.229,7.70000028610229
292.239,-19.9500007629395
292.249,-33.1100006103516
292.259,-44.7300033569336
292.269,-42.4200019836426
292.279,-35
292.289,-35.9400024414062
292.299,-18.8300018310547
292.309,18.5500011444092
292.319,43.2600021362305
292.323,92.0100021362305
292.333,69.2300033569336
292.343,43.6100006103516
292.353,3.1100001335144
292.363,-51.9000015258789
292.373,-71.120002746582
292.383,-67.370002746582
292.393,-65.6900024414062
292.403,-68.4200057983398
292.413,-50.5400009155273
292.423,-24.810001373291
292.433,-1.96000003814697
292.443,12.9800004959106
292.453,43.8500022888184
292.463,77.7700042724609
292.473,105.070007324219
292.481,98.6600036621094
292.491,67.5500030517578
292.501,47.3900032043457
292.511,29.7100009918213
292.521,9.80000019073486
292.531,2.87000012397766
292.541,-22.2200012207031
292.551,-29.2200012207031
292.561,-7.80000019073486
292.571,-5.5600004196167
292.581,-1.85000014305115
292.591,12.2500009536743
292.601,-9.8700008392334
292.611,-12.8100004196167
292.621,12.4900007247925
292.631,27.1200008392334
292.641,43.5000038146973
292.651,7.5600004196167
292.661,-64.8500061035156
292.671,-74.5500030517578
292.68,-71.4000015258789
292.69,-67.0600051879883
292.7,-52.3600006103516
292.71,-42.7300033569336
292.72,-26.2100009918213
292.73,33.6700019836426
292.74,58.9700012207031
292.75,74.0200042724609
292.76,100.200004577637
292.77,96.9500045776367
292.78,87.3200073242188
292.79,41.4400024414062
292.8,-14.3500003814697
292.81,-7.10000038146973
292.82,-7.73000049591064
292.83,8.61000061035156
292.84,10.9200000762939
292.85,12.6300010681152
292.86,42.9400024414062
292.87,53.060001373291
292.879,43.9600028991699
292.889,11.7200002670288
292.899,-10.5700006484985
292.909,-7.80000019073486
292.919,-12.9100008010864
292.929,-55.8200035095215
292.939,-57.8200035095215
292.949,-15.1500005722046
292.959,14.9800004959106
292.969,39.9300003051758
292.979,-10.8100004196167
292.989,-38.9900016784668
292.999,13.8900003433228
293.009,17.25
293.019,26.3500003814697
293.029,22.5000019073486
293.039,-11.7600002288818
293.049,-4.09000015258789
293.059,25.1300010681152
293.069,30.8300018310547
293.073,-26.9500007629395
293.083,9.45000076293945
293.093,25.8300018310547
293.103,13.8600006103516
293.113,17.0100002288818
293.123,-1.64000010490417
293.133,-1.78000009059906
293.143,35.560001373291
293.153,35.870002746582
293.163,18.0200004577637
293.173,32.5100021362305
293.183,-2.62000012397766
293.193,-0.100000001490116
293.203,30.060001373291
293.213,49.2100028991699
293.223,40.1100006103516
293.231,-3.95000028610229
293.241,-31.8500022888184
293.251,-18.7600002288818
293.261,-33.810001373291
293.271,-38.0400009155273
293.281,-39.0200004577637
293.291,-50.0100021362305
293.301,-16.1700000762939
293.311,-7.49000024795532
293.321,-22.8200016021729
293.331,8.28999996185303
293.341,3.81000018119812
293.351,18.5100002288818
293.361,22.6100006103516
293.371,5.28000020980835
293.381,13.6100006103516
293.391,7.91000032424927
293.401,28.4500007629395
293.411,39.2300033569336
293.421,14.5900011062622
293.43,-13.4700002670288
293.44,-32.2000007629395
293.45,22.6800003051758
293.46,72.9700012207031
293.47,20.9300003051758
293.48,-28.1000003814697
293.49,18.0900001525879
293.5,32.3000030517578
293.51,32.620002746582
293.52,-27.6500015258789
293.53,-48.2600021362305
293.54,-10.3600006103516
293.55,-16.2700004577637
293.56,-20.8600006103516
293.57,11.7900009155273
293.58,-3.99000024795532
293.59,23.3800010681152
293.6,54.2100028991699
293.61,28.3800010681152
293.62,25.2000007629395
293.629,17.5300006866455
293.639,5.32000017166138
293.649,23.6900005340576
293.659,34.0200004577637
293.669,-3.08000016212463
293.679,-33.4900016784668
293.689,-22.5400009155273
293.699,14.5200004577637
293.709,14.9400005340576
293.719,3.15000009536743
293.729,8.5
293.739,27.8600006103516
293.749,22.8900012969971
293.759,-2.55000019073486
293.769,27.8600006103516
293.779,17.5
293.789,-11.3700008392334
293.799,17.7100009918213
293.809,37.2400016784668
293.819,28.8000011444092
293.824,-32.5100021362305
293.834,-35.4500007629395
293.844,1.47000002861023
293.854,-1.50000011920929
293.864,23.9700012207031
293.874,30.6200008392334
293.884,30.5900020599365
293.894,39.7900009155273
293.904,36.5
293.914,47.2100028991699
293.924,19.7700004577637
293.934,4.30000019073486
293.944,21.8700008392334
293.954,33.2100028991699
293.964,46.9000015258789
293.974,56.2400016784668
293.981,40.0400009155273
293.991,40.0700035095215
294.001,46.6900024414062
294.011,-7.21000051498413
294.021,-7.87000036239624
294.031,-10.1500005722046
294.041,-28.0000019073486
294.051,-1.50000011920929
294.061,19.7400016784668
294.071,51.0300025939941
294.081,67.3400039672852
294.091,96.7400054931641
294.101,102.160003662109
294.111,113.990005493164
294.121,98.7300033569336
294.131,100.900001525879
294.141,60.5100021362305
294.151,18.9700012207031
294.161,-5.04000043869019
294.171,-56.0000038146973
294.18,-62.0900039672852
294.19,-78.4300003051758
294.2,-75.8100051879883
294.21,-73.25
294.22,-25.2000007629395
294.23,-12.1100006103516
294.24,23.1000003814697
294.25,43.1900024414062
294.26,54.1400032043457
294.27,66.0100021362305
294.28,45.9200019836426
294.29,53.1600036621094
294.3,38.7100028991699
294.31,48.370002746582
294.32,43.9900016784668
294.33,50.3300018310547
294.34,41.5400009155273
294.35,68.4900054931641
294.36,32.4400024414062
294.37,21.2800006866455
294.379,4.01999998092651
294.389,-33.25
294.399,-12.2100009918213
294.409,-41.1900024414062
294.419,-50.5700035095215
294.429,-37.3800010681152
294.439,6.02000045776367
294.449,30.8300018310547
294.459,74.1300048828125
294.469,73.6000061035156
294.479,83.2300033569336
294.489,103.880004882812
294.499,79.3400039672852
294.509,90.8200073242188
294.519,64.9600067138672
294.529,75.9800033569336
294.539,70.5600051879883
294.549,60.1600036621094
294.559,10.0800008773804
294.569,0.380000025033951
294.573,-54.9800033569336
294.583,-27.9300022125244
294.593,-17.9200000762939
294.603,-11.5800008773804
294.613,-6.6100001335144
294.623,-4.69000005722046
294.633,-12.9800004959106
294.643,-30.060001373291
294.653,-25.3700008392334
294.663,-16.480001449585
294.673,-18.5800018310547
294.683,-7.07000017166138
294.693,-23.1300010681152
294.703,-31.4600009918213
294.713,-15.8200006484985
294.723,-35.4500007629395
294.731,-79.4100036621094
294.741,-101.530006408691
294.751,-146.68000793457
294.761,-166.530014038086
294.771,-159.350006103516
294.781,-178.920013427734
294.791,-176.540008544922
294.801,-151.790008544922
294.811,-130.93000793457
294.821,-119.910003662109
294.831,-105.490005493164
294.841,-86.9400024414062
294.851,-82.8100051879883
294.861,-66.7800064086914
294.871,-34.5400009155273
294.881,-3.95000028610229
294.891,27.5800018310547
294.901,48.930004119873
294.911,48.0200004577637
294.921,42.6600036621094
294.93,34.7200012207031
294.94,30.8000011444092
294.95,27.3300018310547
294.96,9.80000019073486
294.97,-1.33000004291534
294.98,-7.14000034332275
294.99,-17.7100009918213
295,-13.8200006484985
295.01,7.45000028610229
295.02,28.0000019073486
295.03,34.1599998474121
295.04,36.0500030517578
295.05,36.8500022888184
295.06,16.5500011444092
295.07,6.96000051498413
295.08,3.29000020027161
295.09,-17.7800006866455
295.1,-23.1700019836426
295.11,-11.3700008392334
295.12,-4.83000040054321
295.129,7.52000045776367
295.139,29.4300022125244
295.149,40.4600028991699
295.159,52.6000022888184
295.169,65.1300048828125
295.179,70.140007019043
295.189,74.9300003051758
295.199,79.4800033569336
295.209,60.4800033569336
295.219,47.3500022888184
295.229,46.2300033569336
295.239,31.6400012969971
295.249,19.1100006103516
295.259,24.1800003051758
295.269,20.4700012207031
295.279,6.30000019073486
295.289,17.8500003814697
295.299,20.2600002288818
295.309,5.60000038146973
295.319,1.92000007629395
295.324,-0.280000001192093
295.334,33.6000022888184
295.344,88.5800018310547
295.354,120.43000793457
295.364,134.850006103516
295.374,161.730010986328
295.384,177.620010375977
295.394,174.610015869141
295.404,176.640014648438
295.414,164.43000793457
295.424,153.540008544922
295.434,174.790008544922
295.444,195.160003662109
295.454,197.68000793457
295.464,205.240005493164
295.474,221.230010986328
295.481,230.300018310547
295.491,243.18000793457
295.501,255.150009155273
295.511,246.43000793457
295.521,245.210006713867
295.531,256.550018310547
295.541,248.570007324219
295.551,219.59001159668
295.561,194.390014648438
295.571,161.100006103516
295.581,115.01000213623
295.591,64.8899993896484
295.601,8.71000003814697
295.611,-21.3800010681152
295.621,-55.680004119873
295.631,-92.120002746582
295.641,-106.43000793457
295.651,-98.0700073242188
295.661,-51.5200042724609
295.671,-10.5000009536743
295.68,34.8900032043457
295.69,59.2900009155273
295.7,63.0700035095215
295.71,51.4800033569336
295.72,70.2100067138672
295.73,18.060001373291
295.74,-27.7900009155273
295.75,-70
295.76,-130.410003662109
295.77,-145.040008544922
295.78,-159.910003662109
295.79,-153.580001831055
295.8,-114.520004272461
295.81,-63.2100028991699
295.82,-3.15000009536743
295.83,35.3500022888184
295.84,55.370002746582
295.85,76.0500030517578
295.86,75.9500045776367
295.87,69.5100021362305
295.879,54.2500038146973
295.889,51.1700019836426
295.899,61.3500022888184
295.909,82.2800064086914
295.919,110.740005493164
295.929,150.640014648438
295.939,176.540008544922
295.949,196.660003662109
295.959,202.020004272461
295.969,170.450012207031
295.979,118.440002441406
295.989,67.5500030517578
295.999,30.6600017547607
296.009,7.94000053405762
296.019,-14.8000011444092
296.029,-22.9200019836426
296.039,-33.1400032043457
296.049,-42.9800033569336
296.059,-44.5200004577637
296.069,-47.6000022888184
296.073,-26.7700004577637
296.083,-37.4500007629395
296.093,-43.4700012207031
296.103,-47.3500022888184
296.113,-52.9500007629395
296.123,-37.8300018310547
296.133,-18.060001373291
296.143,5.14000034332275
296.153,13.8900003433228
296.163,32.1300010681152
296.173,47.2100028991699
296.183,43.8900032043457
296.193,24.2200012207031
296.203,4.13000011444092
296.213,-30.3800010681152
296.223,-52.430004119873
296.231,-59.9200019836426
296.241,-52.2900009155273
296.251,-27.1600017547607
296.261,-8.01000022888184
296.271,36.75
296.281,102.200004577637
296.291,172.440002441406
296.301,212.970016479492
296.311,243.000015258789
296.321,285.180023193359
296.331,301.700012207031
296.341,274.610015869141
296.351,223.720016479492
296.361,164.640014648438
296.371,114.520004272461
296.381,55.4400024414062
296.391,14.5200004577637
296.401,15.3600006103516
296.411,24.810001373291
296.421,24.5300006866455
296.43,49.9400024414062
296.44,92.7800064086914
296.45,82.9500045776367
296.46,53.930004119873
296.47,22.9900016784668
296.48,-16.6900005340576
296.49,-56.7300033569336
296.5,-104.820007324219
296.51,-143.360000610352
296.52,-139.580001831055
296.53,-135.830001831055
296.54,-137.650009155273
296.55,-120.540008544922
296.56,-80.6000061035156
296.57,-41.2600021362305
296.58,7.28000020980835
296.59,41.0900001525879
296.6,52.3200035095215
296.61,49.2100028991699
296.62,20.4400005340576
296.629,-20.1900005340576
296.639,-54.8800010681152
296.649,-85.7800064086914
296.659,-109.340003967285
296.669,-123.650009155273
296.679,-110.460006713867
296.689,-62.4700012207031
296.699,2.90000009536743
296.709,69.7900009155273
296.719,144.130004882812
296.729,208.490005493164
296.739,254.620010375977
296.749,267.920013427734
296.759,261.760009765625
296.769,238.450012207031
296.779,211.820007324219
296.789,185.150009155273
296.799,141.290008544922
296.809,94.3600082397461
296.819,66.8800048828125
296.822,82.0700073242188
296.832,68.4900054931641
296.842,44.6900024414062
296.852,5.07000017166138
296.862,-27.8600006103516
296.872,-54.1400032043457
296.882,-60.370002746582
296.892,-60.3400039672852
296.902,-48.3000030517578
296.912,1.82000005245209
296.922,49.9400024414062
296.932,119.840003967285
296.942,150.920013427734
296.952,174.230010986328
296.962,189.630004882812
296.972,159.630004882812
296.981,118.720008850098
296.991,41.6800003051758
297.001,-20.5100002288818
297.011,-51.3800010681152
297.021,-75.7400054931641
297.031,-86.3800048828125
297.041,-80.5700073242188
297.051,-35.4200019836426
297.061,9.66000080108643
297.071,47.0700035095215
297.081,77.5900039672852
297.091,60.0200042724609
297.101,51.060001373291
297.111,35.8000030517578
297.121,12.7700004577637
297.131,-43.2900009155273
297.141,-116.550003051758
297.151,-148.920013427734
297.161,-171.320007324219
297.171,-177.900009155273
297.18,-174.050003051758
297.19,-163.270004272461
297.2,-139.68000793457
297.21,-119.870002746582
297.22,-93.6900024414062
297.23,-64.6100006103516
297.24,-58.1300010681152
297.25,-66.3600006103516
297.26,-66.6000061035156
297.27,-52.0100021362305
297.28,-48.0500030517578
297.29,-48.2300033569336
297.3,-37.0300025939941
297.31,-26.3900012969971
297.32,-1.6800000667572
297.33,29.5400009155273
297.34,64.3600006103516
297.35,65.9700012207031
297.36,39.3000030517578
297.37,27.4400005340576
297.374,150.460006713867
297.384,205.940002441406
297.394,252.490005493164
297.404,271.77001953125
297.414,295.470001220703
297.424,322.240020751953
297.434,340.060028076172
297.444,290.390014648438
297.454,196.59001159668
297.464,130.860000610352
297.474,80.7800064086914
297.484,58.5200042724609
297.494,45.5300025939941
297.504,22.8900012969971
297.514,27.3000011444092
297.524,73.0400009155273
297.532,125.890007019043
297.542,155.890014648438
297.552,158.270004272461
297.562,132.540008544922
297.572,96.6300048828125
297.582,29.2900009155273
297.592,-45.0400009155273
297.602,-137.230010986328
297.612,-225.470016479492
297.622,-269.850006103516
297.632,-306.600006103516
297.642,-320
297.652,-296.590026855469
297.662,-252.030014038086
297.672,-177.830001831055
297.682,-98.2800064086914
297.692,-38.8500022888184
297.702,0.700000047683716
297.712,38.2900009155273
297.722,52.9200019836426
297.731,42.0000038146973
297.741,27.3700008392334
297.751,10.3200006484985
297.761,-8.05000019073486
297.771,-8.99000072479248
297.781,5.14000034332275
297.791,25.7600021362305
297.801,67.8300018310547
297.811,124.000007629395
297.821,170.730010986328
297.831,215.84001159668
297.841,256.860015869141
297.851,273.490020751953
297.861,281.360015869141
297.871,277.130004882812
297.881,244.610015869141
297.891,187.280014038086
297.901,138.980010986328
297.911,99.5700073242188
297.921,62.0900039672852
297.93,53.7900009155273
297.94,50.5700035095215
297.95,35.1700019836426
297.96,35.4900016784668
297.97,28.2400016784668
297.98,12.4600009918213
297.99,-17.9500007629395
298,-62.930004119873
298.01,-105.560005187988
298.02,-132.540008544922
298.03,-137.300003051758
298.04,-140.630004882812
298.05,-124.390007019043
298.06,-93.4800033569336
298.07,-82.3200073242188
298.08,-59.180004119873
298.09,-23.1000003814697
298.1,8.36000061035156
298.11,60.5800018310547
298.12,47.3500022888184
298.125,-74.6900024414062
298.135,-94.7800064086914
298.145,-79.3400039672852
298.155,-98.2400054931641
298.165,-113.330001831055
298.175,-144.200012207031
298.185,-146.860000610352
298.195,-118.470008850098
298.205,-100.76000213623
298.215,-114.800003051758
298.225,-155.960006713867
298.235,-184.620010375977
298.245,-211.640014648438
298.255,-219.270004272461
298.265,-223.890014648438
298.275,-192.010009765625
298.283,-119.980003356934
298.293,-60.1300010681152
298.303,-25.3700008392334
298.313,14.5200004577637
298.323,68.0400009155273
298.333,95.5100021362305
298.343,51.1300010681152
298.353,-21.4200000762939
298.363,-33.8800010681152
298.373,-53.6900024414062
298.383,-42.2400016784668
298.393,-5.95000028610229
298.403,50.5700035095215
298.413,101.18000793457
298.423,144.200012207031
298.433,175.560012817383
298.443,190.500015258789
298.453,206.220016479492
298.463,186.650009155273
298.473,117.880004882812
298.481,63.0000038146973
298.491,37.4500007629395
298.501,3.71000027656555
298.511,-6.02000045776367
298.521,-0.310000002384186
298.531,-14.4200010299683
298.541,30.5900020599365
298.551,32.0900001525879
298.561,5.39000034332275
298.571,1.6100001335144
298.581,-10.3200006484985
298.591,-80.8100051879883
298.601,-118.090003967285
298.611,-134.150009155273
298.621,-200.650009155273
298.631,-218.290008544922
298.641,-206.600006103516
298.651,-213.530014038086
298.661,-183.120010375977
298.671,-116.51000213623
298.68,-8.22000026702881
298.69,113.220008850098
298.7,196.770004272461
298.71,247.130004882812
298.72,279.960021972656
298.73,304.25
298.74,333.410003662109
298.75,347.480010986328
298.76,290.570007324219
298.77,174.890014648438
298.78,109.020004272461
298.79,38.5700035095215
298.8,-33.6700019836426
298.81,-59.2900009155273
298.82,-64.0500030517578
298.83,-33.1100006103516
298.84,30.6200008392334
298.85,95.7600021362305
298.86,177.450012207031
298.87,256.900024414062
298.874,224.660003662109
298.884,108.110008239746
298.894,31.1800022125244
298.904,-2.34000015258789
298.914,-83.6500015258789
298.924,-223.330017089844
298.934,-293.190002441406
298.944,-263.02001953125
298.954,-221.440017700195
298.964,-200.440002441406
298.974,-117.630004882812
298.984,-36.2600021362305
298.994,11.9300003051758
299.004,73.7800064086914
299.014,186.020004272461
299.024,217.870010375977
299.032,199.220016479492
299.042,194.630004882812
299.052,190.470016479492
299.062,145.070007324219
299.072,154.910003662109
299.082,95.3000030517578
299.092,-65.2400054931641
299.102,-179.510009765625
299.112,-61.7000045776367
299.122,30.1000022888184
299.132,-24.7800006866455
299.142,-48.5100021362305
299.152,23.730001449585
299.162,44.060001373291
299.172,-13.8600006103516
299.182,-21.3800010681152
299.192,-13.8900003433228
299.202,-31.1500015258789
299.212,4.16000032424927
299.222,21.9100017547607
299.231,-11.4400005340576
299.241,-16.6900005340576
299.251,45.9200019836426
299.261,44.9000015258789
299.271,41.0200004577637
299.281,23.060001373291
299.291,-22.5400009155273
299.301,-17.4600009918213
299.311,52.5300025939941
299.321,24.2900009155273
299.331,-14.5600004196167
299.341,15.0500011444092
299.351,33.8400001525879
299.361,38.9200019836426
299.371,42.5200004577637
299.381,8.68000030517578
299.391,5.35000038146973
299.401,28.2100009918213
299.411,17.1800003051758
299.421,-14.5900011062622
299.43,-29.1200008392334
299.44,-18.9700012207031
299.45,-3.99000024795532
299.46,8.01000022888184
299.47,11.5800008773804
299.48,8.96000003814697
299.49,8.96000003814697
299.5,-10.6400003433228
299.51,-21.6600017547607
299.52,-10.2200002670288
299.53,-21.980001449585
299.54,-33.9800033569336
299.55,-35.8000030517578
299.56,-24.2500019073486
299.57,-14.6600008010864
299.58,-1.75000011920929
299.59,12.4200010299683
299.6,13.1600008010864
299.61,18.9300003051758
299.62,25.7600021362305
299.625,1.26000010967255
299.635,-11.4400005340576
299.645,-6.47000026702881
299.655,3.29000020027161
299.665,1.33000004291534
299.675,0.310000002384186
299.685,1.33000004291534
299.695,3.81000018119812
299.705,8.07999992370605
299.715,-3.39000010490417
299.725,-6.12000036239624
299.735,-0.0700000002980232
299.745,7.63000059127808
299.755,6.58000040054321
299.765,12.6300010681152
299.775,10.2900009155273
299.782,16.480001449585
299.792,35.1700019836426
299.802,37.8300018310547
299.812,30.8300018310547
299.822,26.0700016021729
299.832,20.8600006103516
299.842,9.03000068664551
299.852,4.79000043869019
299.862,-1.29000008106232
299.872,-7.45000028610229
299.882,-12.4900007247925
299.892,-8.53999996185303
299.902,-5.91000032424927
299.912,1.47000002861023
299.922,13.7200002670288
299.932,13.7900009155273
299.942,12.6300010681152
299.952,21.5200004577637
299.962,25.0900020599365
299.972,17.25
299.981,11.0900001525879
299.991,-0.980000019073486
300.001,-11.9300003051758
300.011,-4.76000022888184
300.021,-0.520000040531158
300.031,-5.28000020980835
300.041,-4.48000001907349
300.051,3.04000020027161
300.061,13.3300008773804
300.071,34.370002746582
300.081,36.3600006103516
300.091,30.7600021362305
300.101,40.2800025939941
300.111,38.1800003051758
300.121,26.7000007629395
300.131,13.6100006103516
300.141,10.6000003814697
300.151,-0.520000040531158
300.161,-9.73000049591064
300.171,-7.59000015258789
300.18,-7.73000049591064
300.19,-20.7500019073486
300.2,-17.7100009918213
300.21,-11.3700008392334
300.22,-6.89000034332275
300.23,-8.57000064849854
300.24,-3.50000023841858
300.25,1.96000003814697
300.26,1.82000005245209
300.27,-5.77000045776367
300.28,-12.2100009918213
300.29,-10.8800001144409
300.3,-18.1300010681152
300.31,-33.3500022888184
300.32,-41.3000030517578
300.33,-26.7000007629395
300.34,-26.1400012969971
300.35,-34.7900009155273
300.36,-17.3900012969971
300.37,-18.8600006103516
300.375,-6.58000040054321
300.385,1.82000005245209
300.395,-12.9800004959106
300.405,-21.3800010681152
300.415,-23.9400005340576
300.425,-33.8400001525879
300.435,-36.6800003051758
300.445,-24.9900016784668
300.455,-24.0400009155273
300.465,-26.2500019073486
300.475,-35.6599998474121
300.485,-25.9700012207031
300.495,-15.2600011825562
300.505,-27.1900005340576
300.515,-26.4600009918213
300.525,-25.9300003051758
300.532,-39.7200012207031
300.542,-47.9100036621094
300.552,-34.8900032043457
300.562,-34.370002746582
300.572,-38.1500015258789
300.582,-4.48000001907349
300.592,23.2700004577637
300.602,33.9500007629395
300.612,58.1000022888184
300.622,68.9100036621094
300.632,64.7800064086914
300.642,66.4300003051758
300.652,77.9100036621094
300.662,75.25
300.672,60.9700012207031
300.682,59.6000022888184
300.692,58.620002746582
300.702,36.8900032043457
300.712,29.3300018310547
300.722,32.6500015258789
300.731,18.6200008392334
300.741,18.4400005340576
300.751,52.1100006103516
300.761,65.620002746582
300.771,72.5500030517578
300.781,106.540008544922
300.791,113.68000793457
300.801,87.1500015258789
300.811,66.6399993896484
300.821,35.9099998474121
300.831,-26.1800003051758
300.841,-59.5300025939941
300.851,-86.4800033569336
300.861,-142.520004272461
300.871,-171.360000610352
300.881,-153.370010375977
300.891,-135.59001159668
300.901,-110.210006713867
300.911,-52.5000038146973
300.921,-2.97000002861023
300.93,8.71000003814697
300.94,24.7100009918213
300.95,35.4200019836426
300.96,5.84000015258789
300.97,-6.40000009536743
300.98,-14.6600008010864
300.99,-35.0700035095215
301,-61.4900016784668
301.01,-35.3800010681152
301.02,-29.6100006103516
301.03,-49.4900016784668
301.04,-27.8200016021729
301.05,-11.0900001525879
301.06,-35
301.07,-42.0000038146973
301.08,-39.9300003051758
301.09,-73.6700057983398
301.1,-81.4800033569336
301.11,-36.4700012207031
301.12,-10.0100002288818
301.124,34.7200012207031
301.134,13.7500009536743
301.144,-29.8500022888184
301.154,-79.6600036621094
301.164,-89.5600051879883
301.174,-79.0300064086914
301.184,-79.1000061035156
301.194,-31.1500015258789
301.204,36.4700012207031
301.214,47.7000007629395
301.224,57.680004119873
301.234,62.5400047302246
301.244,38.0100021362305
301.254,-7.4200005531311
301.264,-25.1300010681152
301.274,-55.5800018310547
301.282,-89.0700073242188
301.292,-67.7900009155273
301.302,-20.1600017547607
301.312,14.7700004577637
301.322,39.5500030517578
301.332,83.7900009155273
301.342,134.470001220703
301.352,154.170013427734
301.362,184.170013427734
301.372,188.540008544922
301.382,146.260009765625
301.392,104.190002441406
301.402,58.4800033569336
301.412,-22.8900012969971
301.422,-82.390007019043
301.432,-103.000007629395
301.442,-120.330009460449
301.452,-122.780006408691
301.462,-116.130004882812
301.472,-99.2900009155273
301.481,-75.1800003051758
301.491,-53.930004119873
301.501,-37.5900001525879
301.511,-32.7600021362305
301.521,-38.1800003051758
301.531,-22.2900009155273
301.541,-5.5600004196167
301.551,-13.5100002288818
301.561,-15.4000005722046
301.571,-0.520000040531158
301.581,1.00999999046326
301.591,-4.16000032424927
301.601,6.12000036239624
301.611,13.0500001907349
301.621,-2.90000009536743
301.631,-6.33000040054321
301.641,0.770000040531158
301.651,-8.07999992370605
301.661,-24.2500019073486
301.671,-20.2600002288818
301.679,-18.9000015258789
301.689,-22.0100002288818
301.699,-20.0200004577637
301.709,-19.3500003814697
301.719,-18.5800018310547
301.729,-9.38000011444092
301.739,0.770000040531158
301.749,2.10000014305115
301.759,-14.5200004577637
301.769,-22.8900012969971
301.779,-21.2100009918213
301.789,-41.6500015258789
301.799,-62.6100044250488
301.809,-72.0600051879883
301.819,-79.5200042724609
301.829,-93.9400024414062
301.839,-101.530006408691
301.849,-86.0300064086914
301.859,-71.120002746582
301.869,-38.1800003051758
301.873,-24.1800003051758
301.883,-45.6000022888184
301.893,-69.3000030517578
301.903,-77.4900054931641
301.913,-67.3400039672852
301.923,-53.4800033569336
301.933,-52.8800010681152
301.943,-33.0400009155273
301.953,-4.55000019073486
301.963,5.60000038146973
301.973,-11.4800004959106
301.983,-5
301.993,-16.8000011444092
302.003,-44.310001373291
302.013,-55.6500015258789
302.023,-42.9800033569336
302.032,-22.8200016021729
302.042,-0.0300000011920929
302.052,7.59000015258789
302.062,49.0700035095215
302.072,114.200004577637
302.082,151.690002441406
302.092,172.270004272461
302.102,187.390014648438
302.112,184.410003662109
302.122,153.470001220703
302.132,87.7400054931641
302.142,22.4000015258789
302.152,-25.230001449585
302.162,-61.4200019836426
302.172,-50.8500022888184
302.182,-30.060001373291
302.192,-24.3200016021729
302.202,-5.04000043869019
302.212,13.7500009536743
302.222,27.7900009155273
302.231,27.4400005340576
302.241,-2.34000015258789
302.251,-45.2200012207031
302.261,-86.6600036621094
302.271,-115.640007019043
302.281,-173.000015258789
302.291,-205.970016479492
302.301,-205.550003051758
302.311,-171.530014038086
302.321,-111.050003051758
302.331,-63.4900016784668
302.341,-4.51000022888184
302.351,54.180004119873
302.361,107.310005187988
302.371,126.17000579834
302.381,134.190002441406
302.391,126.450004577637
302.401,83.8600006103516
302.411,53.0200042724609
302.421,5.77000045776367
302.429,-25.2000007629395
302.439,-25.0900020599365
302.449,-41.5800018310547
302.459,-38.0400009155273
302.469,-15.0100011825562
302.479,-26.560001373291
302.489,-42.7300033569336
302.499,-66.2900009155273
302.509,-116.620002746582
302.519,-137.720001220703
302.529,-114.690002441406
302.539,-114.940002441406
302.549,-71.2200012207031
302.559,-1.75000011920929
302.569,40.2800025939941
302.579,74.2300033569336
302.589,118.750007629395
302.599,157.110000610352
302.609,162.190002441406
302.619,133.450012207031
302.623,-221.760009765625
302.633,-260.990020751953
302.643,-268.059997558594
302.653,-239.050018310547
302.663,-192.640014648438
302.673,-129.220001220703
302.683,-78.0100021362305
302.693,-0.980000019073486
302.703,61.6000022888184
302.713,85.0100021362305
302.723,109.020004272461
302.733,135.380004882812
302.743,134.120010375977
302.753,124.460006713867
302.763,136.040008544922
302.773,157.18000793457
302.782,173.460006713867
302.792,194.460006713867
302.802,213.110015869141
302.812,219.520004272461
302.822,216.750015258789
302.832,199.640014648438
302.842,155.470001220703
302.852,114.900009155273
302.862,75.390007019043
302.872,23.8300018310547
302.882,-22.5700016021729
302.892,-54.0700035095215
302.902,-60.2700042724609
302.912,-71.9900054931641
302.922,-86.5500030517578
302.932,-102.650001525879
302.942,-101.880004882812
302.952,-100.060005187988
302.962,-91.3500061035156
302.972,-75.7700042724609
302.981,-49.6600036621094
302.991,-29.0100021362305
303.001,-13.4400005340576
303.011,18.5500011444092
303.021,28.3500022888184
303.031,18.6900005340576
303.041,-26.1800003051758
303.051,-94.6700057983398
303.061,-178.990005493164
303.071,-230.510009765625
303.081,-289.200012207031
303.091,-375.510009765625
303.101,-442.710021972656
303.111,-482.440032958984
303.121,-502.280029296875
303.131,-494.830017089844
303.141,-476.310028076172
303.151,-451.600036621094
303.161,-376.810028076172
303.171,-239.470016479492
303.179,-99.5700073242188
303.189,-3.32000017166138
303.199,121.730003356934
303.209,219.520004272461
303.219,279.370025634766
303.229,308.840026855469
303.239,306.77001953125
303.249,288.050018310547
303.259,270.300018310547
303.269,241.500015258789
303.279,206.110015869141
303.289,186.620010375977
303.299,143.18000793457
303.309,97.5800018310547
303.319,70.5200042724609
303.329,68.9800033569336
303.339,58.6600036621094
303.349,33.0699996948242
303.359,14.0700006484985
303.369,27.5800018310547
303.373,-15.2600011825562
303.383,-42.9400024414062
303.393,-67.1600036621094
303.403,-82.3200073242188
303.413,-96.4200057983398
303.423,-85.4000015258789
303.433,-67.6500015258789
303.443,-54.0700035095215
303.453,-62.370002746582
303.463,-81.0600051879883
303.473,-117.42000579834
303.483,-142.830001831055
303.493,-157.880004882812
303.503,-175.870010375977
303.513,-184.200012207031
303.523,-146.93000793457
303.532,-82.390007019043
303.542,-36.2200012207031
303.552,5.84000015258789
303.562,72.5500030517578
303.572,135.940002441406
303.582,161.100006103516
303.592,162.68000793457
303.602,137.510009765625
303.612,112.240005493164
303.622,85.2900009155273
303.632,49.4900016784668
303.642,6.96000051498413
303.652,-19.8800010681152
303.662,-44.1000022888184
303.672,-36.1900024414062
303.682,-9.90000057220459
303.692,2.06000018119812
303.702,13.1200008392334
303.712,21.8000011444092
303.722,42.310001373291
303.731,64.9600067138672
303.741,61.4200019836426
303.751,52.0800018310547
303.761,59.0800018310547
303.771,69.6800003051758
303.781,66.8100051879883
303.791,56.0300025939941
303.801,44.0300025939941
303.811,36.5700035095215
303.821,24.0400009155273
303.831,-3.08000016212463
303.841,-22.1500015258789
303.851,-32.2300033569336
303.861,-33.0699996948242
303.871,-30.6900005340576
303.881,-22.4000015258789
303.891,-10.7400007247925
303.901,-7.1700005531311
303.911,1.36000001430511
303.921,16.2700004577637
303.929,22.2600002288818
303.939,18.480001449585
303.949,31.7400016784668
303.959,46.6500015258789
303.969,49.8400039672852
303.979,48.3000030517578
303.989,43.9200019836426
303.999,42.4900016784668
304.009,36.8900032043457
304.019,17.2200012207031
304.029,15.1200008392334
304.039,15.2600011825562
304.049,10.9500007629395
304.059,9.38000011444092
304.069,15.9900007247925
304.079,-0.100000001490116
304.089,-14.7000007629395
304.099,-19.7000007629395
304.109,-15.0500011444092
304.119,-6.09000015258789
304.124,93.5200042724609
304.134,3.25000023841858
304.144,-123.51000213623
304.154,-187.910003662109
304.164,-130.860000610352
304.174,-71.3300018310547
304.184,-40.7700004577637
304.194,-23.2400016784668
304.204,-33.2800025939941
304.214,-50.430004119873
304.224,-51.1000022888184
304.234,-38.5300025939941
304.244,-17.0100002288818
304.254,17.5300006866455
304.264,-0.730000019073486
304.274,-36.120002746582
304.282,-68.9100036621094
304.292,-71.640007019043
304.302,-55.5400009155273
304.312,-18.480001449585
304.322,7.63000059127808
304.332,-41.0900001525879
304.342,-47.7700004577637
304.352,-45.4300003051758
304.362,-128.100006103516
304.372,-169.540008544922
304.382,-121.940002441406
304.392,-33.3500022888184
304.402,39.5100021362305
304.412,84.5900039672852
304.422,72.8300018310547
304.432,32.9700012207031
304.442,24.7400016784668
304.452,20.1600017547607
304.462,28.3800010681152
304.472,48.8200035095215
304.481,51.2700042724609
304.491,42.0000038146973
304.501,70
304.511,101.500007629395
304.521,143.290008544922
304.531,193.550003051758
304.541,268.660003662109
304.551,264.809997558594
304.561,150.390014648438
304.571,133.700012207031
304.581,189.630004882812
304.591,162.540008544922
304.601,62.8600044250488
304.611,62.6100044250488
304.621,85.4300003051758
304.631,92.4000015258789
304.641,129.040008544922
304.651,136.810012817383
304.661,141.75
304.671,169.540008544922
304.679,198.800003051758
304.689,164.500015258789
304.699,121.900009155273
304.709,64.0500030517578
304.719,-1.99000012874603
304.729,-67.8300018310547
304.739,-111.68000793457
304.749,-131.950012207031
304.759,-145.670013427734
304.769,-154.560012817383
304.779,-134.010009765625
304.789,-143.080001831055
304.799,-116.270004272461
304.809,-84.2100067138672
304.819,-46.3000030517578
304.829,-14.8400011062622
304.839,-5.04000043869019
304.849,0.310000002384186
304.859,7.94000053405762
304.869,-0.800000011920929
304.873,34.0900001525879
304.883,34.5100021362305
304.893,26.2100009918213
304.903,17.0400009155273
304.913,5.42000007629395
304.923,-13.7900009155273
304.933,-18.0900001525879
304.943,-30.9700012207031
304.953,-48.8600006103516
304.963,-26.9100017547607
304.973,-0.770000040531158
304.983,7.35000038146973
304.993,19.5300006866455
305.003,49.2800025939941
305.013,59.3200035095215
305.023,76.2600021362305
305.032,86.4800033569336
305.042,69.6800003051758
305.052,51.6900024414062
305.062,51.4100036621094
305.072,32.7600021362305
305.082,-11.4100008010864
305.092,-34.6500015258789
305.102,-29.4000015258789
305.112,-39.6900024414062
305.122,-37.8000030517578
305.132,-18.3700008392334
305.142,-6.65000009536743
305.152,15.5700006484985
305.162,54.4900016784668
305.172,66.8800048828125
305.182,58.6900024414062
305.192,63.9400024414062
305.202,65.4800033569336
305.212,52.5000038146973
305.222,35.2100028991699
305.231,36.2200012207031
305.241,20.9600009918213
305.251,12.6300010681152
305.261,21.9100017547607
305.271,15.6100006103516
305.281,-0.490000009536743
305.291,9.17000007629395
305.301,3.57000017166138
305.311,-11.2700004577637
305.321,-14.2800006866455
305.331,-6.89000034332275
305.341,-15.9900007247925
305.351,-10.7400007247925
305.361,5.95000028610229
305.371,-1.00999999046326
305.381,-6.19000005722046
305.391,18.7200012207031
305.401,29.2200012207031
305.411,23.2000007629395
305.421,37.4800033569336
305.429,50.6100006103516
305.439,42.560001373291
305.449,48.0500030517578
305.459,55.0500030517578
305.469,34.7900009155273
305.479,27.3700008392334
305.489,25.7600021362305
305.499,-6.40000009536743
305.509,-22.7500019073486
305.519,-28.5900020599365
305.529,-41.3300018310547
305.539,-36.4300003051758
305.549,-24.9900016784668
305.559,-18.480001449585
305.569,-16.1700000762939
305.579,1.71000003814697
305.589,17.1800003051758
305.599,12.5600004196167
305.609,15.7800006866455
305.619,15.9200010299683
305.623,-4.37000036239624
305.633,-5.98000049591064
305.643,-16.9400005340576
305.653,-21.8000011444092
305.663,-16.5900001525879
305.673,-27.0500011444092
305.683,-33.5300025939941
305.693,-17.6700000762939
305.703,-14.0700006484985
305.713,-14.4200010299683
305.723,6.05000019073486
305.733,15.0500011444092
305.743,8.19000053405762
305.753,19.3500003814697
305.763,17.6400012969971
305.773,-2.62000012397766
305.782,7.52000045776367
305.792,13.6100006103516
305.802,-8.64000034332275
305.812,-17.9500007629395
305.822,-13.6800003051758
305.832,-27.3000011444092
305.842,-15.0500011444092
305.852,-7.87000036239624
305.862,-31.5300006866455
305.872,-33.9500007629395
305.882,-18.3000011444092
305.892,-20.4000015258789
305.902,-12.6000003814697
305.912,0.840000033378601
305.922,-14.9100008010864
305.932,-5.32000017166138
305.942,13.3700008392334
305.952,-1.82000005245209
305.962,2.59000015258789
305.972,20.0200004577637
305.98,7.07000017166138
305.99,7.45000028610229
306,3.67000007629395
306.01,-26.6700019836426
306.02,-25.6200008392334
306.03,-15.1500005722046
306.04,-34.8200035095215
306.05,-27.8600006103516
306.06,2.03000020980835
306.07,3.22000026702881
306.08,22.4000015258789
306.09,45.6700019836426
306.1,27.3300018310547
306.11,26.7700004577637
306.12,28.2100009918213
306.13,-5.25000047683716
306.14,-16.8000011444092
306.15,-22.2900009155273
306.16,-58.1000022888184
306.17,-60.6900024414062
306.179,-47.2800025939941
306.189,-51.1000022888184
306.199,-30.1300010681152
306.209,4.97000026702881
306.219,8.96000003814697
306.229,27.9300022125244
306.239,52.1100006103516
306.249,34.2300033569336
306.259,30.3400020599365
306.269,34.7900009155273
306.279,11.6500005722046
306.289,15.7100009918213
306.299,19.7700004577637
306.309,-6.05000019073486
306.319,-7.28000020980835
306.329,-5.46000003814697
306.339,-15.9600009918213
306.349,9.3100004196167
306.359,22.2600002288818
306.369,6.68000030517578
306.373,-1.78000009059906
306.383,-4.76000022888184
306.393,14.0000009536743
306.403,22.3600006103516
306.413,23.2000007629395
306.423,32.1300010681152
306.433,18.2000007629395
306.443,6.51000022888184
306.453,8.01000022888184
306.463,-12.0700006484985
306.473,-31.9500007629395
306.483,-34.8200035095215
306.493,-55.370002746582
306.503,-47.7400016784668
306.513,-13.4000005722046
306.523,6.89000034332275
306.532,33.4600028991699
306.542,54.7700042724609
306.552,54.5300025939941
306.562,55.3000030517578
306.572,41.4700012207031
306.582,26.3500003814697
306.592,21.5200004577637
306.602,0.100000001490116
306.612,-16.060001373291
306.622,-8.92000007629395
306.632,-9.97000026702881
306.642,-9.17000007629395
306.652,8.64000034332275
306.662,8.40000057220459
306.672,4.79000043869019
306.682,19.1400012969971
306.692,15.7100009918213
306.702,2.41000008583069
306.712,10.9500007629395
306.722,13.6100006103516
306.73,21.9100017547607
306.74,57.2900009155273
306.75,76.8200073242188
306.76,83.4000015258789
306.77,109.020004272461
306.78,101.67000579834
306.79,66.4600067138672
306.8,66.8500061035156
306.81,54.0400009155273
306.82,7.24000024795532
306.83,-8.36000061035156
306.84,-0.21000000834465
306.85,1.85000014305115
306.86,23.060001373291
306.87,52.5300025939941
306.88,60.930004119873
306.89,85.8500061035156
306.9,109.410003662109
306.91,94.7800064086914
306.92,71.9200057983398
306.929,73.1500015258789
306.939,54.7700042724609
306.949,19
306.959,7.03000020980835
306.969,-6.44000053405762
306.979,-20.4400005340576
306.989,-17.6700000762939
306.999,-23.9400005340576
307.009,-41.9300003051758
307.019,-68.2100067138672
307.029,-75.6000061035156
307.039,-102.300003051758
307.049,-140.520004272461
307.059,-146.160003662109
307.069,-129.150009155273
307.079,-127.780006408691
307.089,-102.410003662109
307.099,-60.9000015258789
307.109,-30.5900020599365
307.119,-12.1400003433228
307.124,61.180004119873
307.134,81.0900039672852
307.144,102.130004882812
307.154,130.760009765625
307.164,136.18000793457
307.174,105.800003051758
307.184,68.4600067138672
307.194,34.0900001525879
307.204,-5.8100004196167
307.214,-35.7700004577637
307.224,-47.2100028991699
307.234,-59.1500015258789
307.244,-73.8500061035156
307.254,-85.9600067138672
307.264,-96.140007019043
307.274,-126.630004882812
307.282,-134.990005493164
307.292,-128.380004882812
307.302,-126.520004272461
307.312,-132.75
307.322,-123.900009155273
307.332,-99.9600067138672
307.342,-84.4900054931641
307.352,-92.7500076293945
307.362,-99.890007019043
307.372,-116.410003662109
307.382,-150.640014648438
307.392,-169.710006713867
307.402,-190.960006713867
307.412,-214.580017089844
307.422,-195.790008544922
307.432,-145.880004882812
307.442,-88.6500015258789
307.452,-33.4600028991699
307.462,16.6200008392334
307.472,64.120002746582
307.48,86.2700042724609
307.49,83.0900039672852
307.5,33.1400032043457
307.51,-12.7000007629395
307.52,-44.2700004577637
307.53,-81.3000030517578
307.54,-111.750007629395
307.55,-103.530006408691
307.56,-79.2400054931641
307.57,-57.6100044250488
307.58,-24.6400012969971
307.59,10.2200002670288
307.6,40.9800033569336
307.61,56.5900039672852
307.62,55.9600028991699
307.63,54.3500022888184
307.64,45.8800010681152
307.65,16.4500007629395
307.66,-21.9400005340576
307.67,-35.0700035095215
307.679,-45.7800025939941
307.689,-47.6300010681152
307.699,-49.1000022888184
307.709,-30.3400020599365
307.719,-25.7200012207031
307.729,-16.7600002288818
307.739,-15.1200008392334
307.749,-18.3700008392334
307.759,-32.370002746582
307.769,-53.2700042724609
307.779,-75.6000061035156
307.789,-84.2800064086914
307.799,-74.6500015258789
307.809,-85.6100006103516
307.819,-80.7100067138672
307.829,-63.1400032043457
307.839,-42.310001373291
307.849,-26.2100009918213
307.859,-24.6400012969971
307.869,-28.9100017547607
307.873,-76.9300003051758
307.883,-76.0200042724609
307.893,-85.6100006103516
307.903,-105.940002441406
307.913,-121.310005187988
307.923,-144.720001220703
307.933,-150.920013427734
307.943,-150.880004882812
307.953,-146.020004272461
307.963,-137.230010986328
307.973,-127.010009765625
307.983,-95.8300018310547
307.993,-63.310001373291
308.003,-50.1500015258789
308.013,-47.8400039672852
308.023,-58.2700042724609
308.032,-64.5400009155273
308.042,-82.0400009155273
308.052,-105.070007324219
308.062,-118.440002441406
308.072,-117.950004577637
308.082,-117.770004272461
308.092,-118.540008544922
308.102,-106.050003051758
308.112,-71.4000015258789
308.122,-34.9600028991699
308.132,8.26000022888184
308.142,35.5200004577637
308.152,52.2200012207031
308.162,57.2600021362305
308.172,53.7900009155273
308.182,38.1800003051758
308.192,24.0100002288818
308.202,-2.83000016212463
308.212,-39.3000030517578
308.222,-79.5900039672852
308.23,-117.110008239746
308.24,-136.810012817383
308.25,-149.34001159668
308.26,-151.580001831055
308.27,-133.940002441406
308.28,-103.67000579834
308.29,-61.810001373291
308.3,-14.6600008010864
308.31,18.7600002288818
308.32,43.5000038146973
308.33,69.1600036621094
308.34,96.5300064086914
308.35,105.560005187988
308.36,103.490005493164
308.37,76.890007019043
308.38,51.870002746582
308.39,24.4600009918213
308.4,9.45000076293945
308.41,5.70000028610229
308.42,7.63000059127808
308.429,11.0600004196167
308.439,15.6400003433228
308.449,41.9600028991699
308.459,68.6000061035156
308.469,96.2800064086914
308.479,126.910003662109
308.489,137.410003662109
308.499,147.660003662109
308.509,136.43000793457
308.519,120.850006103516
308.529,117.18000793457
308.539,153.020004272461
308.549,159.950012207031
308.559,141.5
308.569,127.120002746582
308.579,106.540008544922
308.589,64.9200057983398
308.599,38.5300025939941
308.609,12.4600009918213
308.619,-10.710000038147
308.623,80.8800048828125
308.633,114.480003356934
308.643,123.650009155273
308.653,108.500007629395
308.663,88.3000030517578
308.673,35.6300010681152
308.683,-23.5500011444092
308.693,-90.7200012207031
308.703,-140.170013427734
308.713,-139.790008544922
308.723,-117.140007019043
308.733,-103.630004882812
308.743,-90.0200042724609
308.753,-58.2400016784668
308.763,16.1700000762939
308.773,63.5900039672852
308.782,66.3899993896484
308.792,46.6500015258789
308.802,16.8700008392334
308.812,14.5900011062622
308.822,33.9800033569336
308.832,23.5500011444092
308.842,-20.9300003051758
308.852,-63.1700019836426
308.862,-67.2000045776367
308.872,-75.6300048828125
308.882,-82.3500061035156
308.892,-113.570007324219
308.902,-168.280014038086
308.912,-190.750015258789
308.922,-204.050003051758
308.932,-202.370010375977
308.942,-208.700012207031
308.952,-201.460006713867
308.962,-172.860000610352
308.972,-135.380004882812
308.98,-84.8000030517578
308.99,-46.060001373291
309,-14.7300004959106
309.01,23.480001449585
309.02,43.3600006103516
309.03,54.2100028991699
309.04,77.4200057983398
309.05,76.6800003051758
309.06,66.9200057983398
309.07,81.4400024414062
309.08,86.4800033569336
309.09,91.2100067138672
309.1,103.530006408691
309.11,99.0100021362305
309.12,100.900001525879
309.13,103.840003967285
309.14,78.640007019043
309.15,45.8500022888184
309.16,11.0600004196167
309.17,-35.4500007629395
309.179,-75.8400039672852
309.189,-113.290008544922
309.199,-136.850006103516
309.209,-129.740005493164
309.219,-103.910003662109
309.229,-83.1900024414062
309.239,-68.9100036621094
309.249,-52.7800025939941
309.259,-24.1800003051758
309.269,-1.15000009536743
309.279,8.75
309.289,2.73000001907349
309.299,-5.25000047683716
309.309,15.3600006103516
309.319,31.0400009155273
309.329,34.3000030517578
309.339,26.0400009155273
309.349,1.99000012874603
309.359,-5.14000034332275
309.369,-9.03000068664551
309.373,-53.4400024414062
309.383,-27.5400009155273
309.393,-7.70000028610229
309.403,23.8700008392334
309.413,42.3500022888184
309.423,52.3600006103516
309.433,49.560001373291
309.443,21.5200004577637
309.453,-15.2200002670288
309.463,-50.1500015258789
309.473,-76.9300003051758
309.483,-73.6700057983398
309.493,-64.0500030517578
309.503,-49.3500022888184
309.513,-45.5000038146973
309.523,-45.4600028991699
309.532,-41.120002746582
309.542,-58.9400024414062
309.552,-77.0300064086914
309.562,-111.26000213623
309.572,-135.310012817383
309.582,-140.100006103516
309.592,-130.970001220703
309.602,-104.050003051758
309.612,-77.6600036621094
309.622,-53.1300010681152
309.632,-12.3200006484985
309.642,23.5500011444092
309.652,44.2000007629395
309.662,62.3000030517578
309.672,82.390007019043
309.682,89.3500061035156
309.692,94.2200012207031
309.702,90.370002746582
309.712,77.3500061035156
309.722,67.0200042724609
309.73,63.7000045776367
309.74,73.5300064086914
309.75,68.2100067138672
309.76,49.6600036621094
309.77,32.2300033569336
309.78,22.1900005340576
309.79,5.28000020980835
309.8,-18.9700012207031
309.81,-41.6500015258789
309.82,-62.370002746582
309.83,-55.0500030517578
309.84,-56.8000030517578
309.85,-58.8000030517578
309.86,-58.7600021362305
309.87,-57.1900024414062
309.88,-34.3000030517578
309.89,-16.310001373291
309.9,-12.9800004959106
309.91,-7.5600004196167
309.92,3.29000020027161
309.929,18.060001373291
309.939,26.6000003814697
309.949,20.8600006103516
309.959,15.8900003433228
309.969,14.0000009536743
309.979,13.1900005340576
309.989,14.1700010299683
309.999,4.23000001907349
310.009,3.22000026702881
310.019,10.1800003051758
310.029,18.2000007629395
310.039,35.2800025939941
310.049,51.8300018310547
310.059,58.1700019836426
310.069,70.7700042724609
310.079,81.7600021362305
310.089,80.8500061035156
310.099,79.1300048828125
310.109,73.2900009155273
310.119,62.2600021362305
310.124,-30.8000011444092
310.134,-60.6500015258789
310.144,-79.1300048828125
310.154,-101.320007324219
310.164,-114.520004272461
310.174,-122.220008850098
310.184,-117.810005187988
310.194,-105.630004882812
310.204,-91.0700073242188
310.214,-59.8500022888184
310.224,-30.6200008392334
310.234,-8.01000022888184
310.244,-9.10000038146973
310.254,-27.0500011444092
310.264,-65.0600051879883
310.274,-91.9400024414062
310.281,-115.220008850098
310.291,-143.360000610352
310.301,-168.070007324219
310.311,-156.900009155273
310.321,-117.460006713867
310.331,-91.2100067138672
310.341,-58.7600021362305
310.351,-7.10000038146973
310.361,19.2100009918213
310.371,26.2500019073486
310.381,31.0100021362305
310.391,21.5200004577637
310.401,10.5300006866455
310.411,1.26000010967255
310.421,-9.0600004196167
310.431,0.800000011920929
310.441,16.3400001525879
310.451,19.4600009918213
310.461,25.0900020599365
310.471,32.7200012207031
310.48,37.5900001525879
310.49,29.5700016021729
310.5,6.37000036239624
310.51,-24.0100002288818
310.52,-36.9600028991699
310.53,-51.7600021362305
310.54,-68.1800003051758
310.55,-68.9100036621094
310.56,-52.8800010681152
310.57,-37.8000030517578
310.58,-4.90000009536743
310.59,8.92000007629395
310.6,25.5100021362305
310.61,34.5400009155273
310.62,35.5200004577637
310.63,23.060001373291
310.64,23.9400005340576
310.65,25.7900009155273
310.66,13.5400009155273
310.67,-0.450000017881393
310.679,15.2200002670288
310.689,28.9100017547607
310.699,29.5700016021729
310.709,11.6500005722046
310.719,0.450000017881393
310.729,-0.800000011920929
310.739,-9.83000087738037
310.749,-45.0400009155273
310.759,-70.5900039672852
310.769,-55.6500015258789
310.779,-55.1600036621094
310.789,-55.0500030517578
310.799,-30.8700008392334
310.809,-10.4300003051758
310.819,-8.75
310.829,2.03000020980835
310.839,15.9900007247925
310.849,26.8800010681152
310.859,21.9100017547607
310.869,-1.75000011920929
310.873,-27.0500011444092
310.883,-21.730001449585
310.893,-36.3300018310547
310.903,-39.4400024414062
310.913,-18.480001449585
310.923,-6.93000030517578
310.933,-0.840000033378601
310.943,4.44000005722046
310.953,15.9200010299683
310.963,14.9100008010864
310.973,11.9000005722046
310.983,8.47000026702881
310.993,25.5500011444092
311.003,21.3500003814697
311.013,-4.26999998092651
311.023,2.41000008583069
311.031,17.6700000762939
311.041,-1.05000007152557
311.051,-12.7400007247925
311.061,-2.48000001907349
311.071,11.6900005340576
311.081,2.94000005722046
311.091,-10.4300003051758
311.101,7.98000049591064
311.111,8.64000034332275
311.121,-6.02000045776367
311.131,2.59000015258789
311.141,24.6400012969971
311.151,12.6300010681152
311.161,4.0600004196167
311.171,11.5800008773804
311.181,13.5400009155273
311.191,-3.88000011444092
311.201,-9.34000015258789
311.211,9.97000026702881
311.221,6.96000051498413
311.23,-0.520000040531158
311.24,7.70000028610229
311.25,18.5800018310547
311.26,9.10000038146973
311.27,1.15000009536743
311.28,10.0400009155273
311.29,22.2200012207031
311.3,14.0300006866455
311.31,7.45000028610229
311.32,17.6000003814697
311.33,6.58000040054321
311.34,-4.44000005722046
311.35,8.36000061035156
311.36,24.8500003814697
311.37,28.0700016021729
311.38,33.7000007629395
311.39,27.230001449585
311.4,8.92000007629395
311.41,9.41000080108643
311.42,19.7000007629395
311.429,21.8000011444092
311.439,-4.93000030517578
311.449,-31.0100021362305
311.459,-18.3700008392334
311.469,-21.1400012969971
311.479,-35.310001373291
311.489,-20.5100002288818
311.499,-3.64000010490417
311.509,0.350000023841858
311.519,21.2100009918213
311.529,54.180004119873
311.539,49.5200004577637
311.549,56.9100036621094
311.559,86.2000045776367
311.569,49.8400039672852
311.579,-15.0800008773804
311.589,-20.5800018310547
311.599,-5.70000028610229
311.609,-14.7000007629395
311.619,-9.73000049591064
311.623,25.7600021362305
311.633,12.8100004196167
311.643,38.4600028991699
311.653,77
311.663,47.3500022888184
311.673,19.4900016784668
311.683,14.5600004196167
311.693,-12.1100006103516
311.703,-34.7900009155273
311.713,-13.4000005722046
311.723,-19.3900012969971
311.733,-49.560001373291
311.743,-25.5100021362305
311.753,11.1300001144409
311.763,13.7900009155273
311.773,22.0100002288818
311.781,52.0400009155273
311.791,43.3300018310547
311.801,26.560001373291
311.811,64.4300003051758
311.821,64.6100006103516
311.831,45.9500007629395
311.841,60.4400024414062
311.851,65.5500030517578
311.861,54.6700019836426
311.871,78.8500061035156
311.881,83.6500015258789
311.891,43.1500015258789
311.901,19.0700016021729
311.911,3.1100001335144
311.921,-48.3300018310547
311.931,-73.0100021362305
311.941,-52.7400016784668
311.951,-40
311.961,-36.6400032043457
311.971,1.15000009536743
311.98,32.0900001525879
311.99,29.5400009155273
312,51.5200042724609
312.01,72.3800048828125
312.02,58.4100036621094
312.03,54.8400039672852
312.04,79.4800033569336
312.05,64.6100006103516
312.06,45.7100028991699
312.07,65.9700012207031
312.08,51.1700019836426
312.09,12.8800010681152
312.1,35.8000030517578
312.11,53.7200012207031
312.12,42.1400032043457
312.13,62.5400047302246
312.14,61.8400039672852
312.15,29.3300018310547
312.16,9.45000076293945
312.17,-24.0400009155273
312.179,-51.060001373291
312.189,-47.4600028991699
312.199,-30.2400016784668
312.209,-19.25
312.219,5.8100004196167
312.229,35.870002746582
312.239,62.4700012207031
312.249,74.7200012207031
312.259,86.1700057983398
312.269,82.3500061035156
312.279,83.0900039672852
312.289,101.320007324219
312.299,119.310005187988
312.309,120.68000793457
312.319,113.750007629395
312.329,86.9700012207031
312.339,52.1500015258789
312.349,15.1200008392334
312.359,-19.7000007629395
312.369,-46.0900039672852
312.373,-31.4300022125244
312.383,-25.060001373291
312.393,-28.3500022888184
312.403,-37.870002746582
312.413,-36.7800025939941
312.423,-54.7000007629395
312.433,-81.2000045776367
312.443,-79.9400024414062
312.453,-89.7700042724609
312.463,-85.6800003051758
312.473,-58.7300033569336
312.483,-28.4500007629395
312.493,-3.50000023841858
312.503,25.230001449585
312.513,44.5200004577637
312.523,52.6000022888184
312.531,49.560001373291
312.541,47.6000022888184
312.551,39.5100021362305
312.561,16.9400005340576
312.571,0.560000002384186
312.581,-6.33000040054321
312.591,-16.9700012207031
312.601,-4.76000022888184
312.611,17.8800010681152
312.621,33.7400016784668
312.631,70.3800048828125
312.641,109.900001525879
312.651,139.790008544922
312.661,165.230010986328
312.671,184.550003051758
312.681,183.540008544922
312.691,137.760009765625
312.701,89.390007019043
312.711,56.9100036621094
312.721,19.4200000762939
312.73,-13.5800008773804
312.74,-41.5800018310547
312.75,-46.8600006103516
312.76,-39.7200012207031
312.77,-15.6100006103516
312.78,12.9100008010864
312.79,17.810001373291
312.8,43.9200019836426
312.81,60.0200042724609
312.82,60.8300018310547
312.83,59.1500015258789
312.84,43.0800018310547
312.85,37.060001373291
312.86,50.0800018310547
312.87,54.1400032043457
312.88,53.7200012207031
312.89,53.2700042724609
312.9,46.2000007629395
312.91,63.0700035095215
312.92,63.7700042724609
312.929,38.9900016784668
312.939,10.2900009155273
312.949,-25.5500011444092
312.959,-57.8900032043457
312.969,-76.4700012207031
312.979,-89.0700073242188
312.989,-103.42000579834
312.999,-98.5600051879883
313.009,-60.3000030517578
313.019,-32.6900024414062
313.029,10.7800006866455
313.039,66.25
313.049,72.7600021362305
313.059,67.4400024414062
313.069,74.3400039672852
313.079,52.1100006103516
313.089,2.69000005722046
313.099,-24.7100009918213
313.109,-68.6700057983398
313.119,-97.7900009155273
313.124,-77.5900039672852
313.134,-57.430004119873
313.144,-39.4100036621094
313.154,-6.09000015258789
313.164,22.3300018310547
313.174,37.060001373291
313.184,53.3400039672852
313.194,80.1800003051758
313.204,101.92000579834
313.214,122.250007629395
313.224,128.970001220703
313.234,126.770004272461
313.244,110.140007019043
313.254,89.5300064086914
313.264,80.5700073242188
313.274,68
313.281,59.9500045776367
313.291,55.7900009155273
313.301,50.6400032043457
313.311,45.0100021362305
313.321,43.4700012207031
313.331,29.1900005340576
313.341,43.2200012207031
313.351,46.0200004577637
313.361,37.7300033569336
313.371,67.5500030517578
313.381,107.130004882812
313.391,132.300003051758
313.401,192.570007324219
313.411,228.970016479492
313.421,249.34001159668
313.431,263.510009765625
313.441,261.590026855469
313.451,216.540008544922
313.461,158.270004272461
313.471,80.2900009155273
313.48,10.1100006103516
313.49,-70.7700042724609
313.5,-151.690002441406
313.51,-199.080001831055
313.52,-234.150009155273
313.53,-260.890014648438
313.54,-233.450012207031
313.55,-219.690017700195
313.56,-199.810012817383
313.57,-159.040008544922
313.58,-89.4900054931641
313.59,-37.3400001525879
313.6,2.03000020980835
313.61,44.5900039672852
313.62,81.0200042724609
313.63,114.550003051758
313.64,137.09001159668
313.65,165.34001159668
313.66,188.020004272461
313.67,234.600006103516
313.679,311.460021972656
313.689,371.840026855469
313.699,404.490020751953
313.709,389.090026855469
313.719,365.640014648438
313.729,319.550018310547
313.739,284.480010986328
313.749,227.780014038086
313.759,165.650009155273
313.769,110.950004577637
313.779,98.9400024414062
313.789,81.370002746582
313.799,129.220001220703
313.809,152.810012817383
313.819,155.400009155273
313.829,211.68000793457
313.839,257.420013427734
313.849,255.530014038086
313.859,271.320007324219
313.869,125.790008544922
313.873,-502.700012207031
313.883,-500.360015869141
313.893,-438.060028076172
313.903,-323.960021972656
313.913,-179.900009155273
313.923,-51.3400039672852
313.933,87.390007019043
313.943,205.380004882812
313.953,324.970001220703
313.963,443.060028076172
313.973,469.030029296875
313.983,401.27001953125
313.993,231.030014038086
314.003,128.480010986328
314.013,26.9500007629395
314.023,-111.120002746582
314.031,-190.220016479492
314.041,-266.420013427734
314.051,-249.860015869141
314.061,-193.970016479492
314.071,-159.700012207031
314.081,-148.290008544922
314.091,-122.640007019043
314.101,-43.7500038146973
314.111,8.47000026702881
314.121,3.1800000667572
314.131,-33.3199996948242
314.141,-53.060001373291
314.151,-65.8300018310547
314.161,-100.730003356934
314.171,-190.010009765625
314.181,-284.480010986328
314.191,-257.390014648438
314.201,-200.93000793457
314.211,-143.570007324219
314.221,-67.370002746582
314.23,-24.3900012969971
314.24,5.39000034332275
314.25,53.2000007629395
314.26,112.870002746582
314.27,147.700012207031
314.28,129.779998779297
314.29,102.060005187988
314.3,82.140007019043
314.31,61.2100028991699
314.32,38.25
314.33,7.4200005531311
314.34,-23.1000003814697
314.35,-58.1700019836426
314.36,-79.7300033569336
314.37,-90.3000030517578
314.38,-98.4500045776367
314.39,-114.900009155273
314.4,-125.540008544922
314.41,-108.990005493164
314.42,-73.5699996948242
314.424,172.860000610352
314.434,220.460006713867
314.444,238.450012207031
314.454,232.470016479492
314.464,206.110015869141
314.474,203.630004882812
314.484,239.710006713867
314.494,271.110015869141
314.504,298.27001953125
314.514,310.340026855469
314.524,263.510009765625
314.534,179.510009765625
314.544,76.4700012207031
314.554,8.26000022888184
314.564,-28.4200019836426
314.574,-43.8500022888184
314.582,-59.2900009155273
314.592,-64.2900009155273
314.602,-48.4000015258789
314.612,-5.18000030517578
314.622,52.9500007629395
314.632,71.0500030517578
314.642,72.6600036621094
314.652,81.8600006103516
314.662,82.7700042724609
314.672,52.810001373291
314.682,14.9800004959106
314.692,-45.3200035095215
314.702,-90.1600036621094
314.712,-100.060005187988
314.722,-114.240005493164
314.732,-113.750007629395
314.742,-100.76000213623
314.752,-78.5400009155273
314.762,-48.370002746582
314.772,-8.82000064849854
314.781,10.1500005722046
314.791,20.3300018310547
314.801,35.6599998474121
314.811,36.2600021362305
314.821,30.9700012207031
314.831,24.6000003814697
314.841,18.6500015258789
314.851,7.07000017166138
314.861,-1.05000007152557
314.871,8.5
314.881,5.28000020980835
314.891,-2.52000021934509
314.901,2.80000019073486
314.911,5.07000017166138
314.921,-2.69000005722046
314.931,-4.83000040054321
314.941,-11.3400001525879
314.951,-24.5700016021729
314.961,-33.4200019836426
314.971,-25.6500015258789
314.98,0.310000002384186
314.99,29.4700012207031
315,53.8300018310547
315.01,83.9300003051758
315.02,112.590003967285
315.03,117.840003967285
315.04,130.720001220703
315.05,154.310012817383
315.06,155.960006713867
315.07,134.190002441406
315.08,110.880004882812
315.09,69.0200042724609
315.1,1.08000004291534
315.11,-46.1300010681152
315.12,-97.4000015258789
315.13,-162.190002441406
315.14,-195.020004272461
315.15,-207.020004272461
315.16,-184.480010986328
315.17,-136.600006103516
315.174,176.710006713867
315.184,168.800003051758
315.194,130.200012207031
315.204,104.890007019043
315.214,58.8000030517578
315.224,-39.2300033569336
315.234,-56.1700019836426
315.244,-47.3200035095215
315.254,-49.8000030517578
315.264,-48.1900024414062
315.274,10.1100006103516
315.284,34.2300033569336
315.294,66.0800018310547
315.304,138.25
315.314,172.480010986328
315.324,186.160003662109
315.332,182.240005493164
315.342,195.260009765625
315.352,211.710006713867
315.362,147.59001159668
315.372,48.8900032043457
315.382,-24.5700016021729
315.392,-106.890007019043
315.402,-140.660003662109
315.412,-114.480003356934
315.422,-98.8400039672852
315.432,-108.150001525879
315.442,-45.5000038146973
315.452,-30.4500007629395
315.462,-70.8000030517578
315.472,-38.1500015258789
315.482,-43.3300018310547
315.492,-57.0500030517578
315.502,-27.9300022125244
315.512,19.8400001525879
315.522,20.1600017547607
315.531,10.5700006484985
315.541,40.6700019836426
315.551,45.1800003051758
315.561,25.5800018310547
315.571,34.370002746582
315.581,-6.72000026702881
315.591,-40.0400009155273
315.601,8.57000064849854
315.611,25.7600021362305
315.621,39.620002746582
315.631,66.9500045776367
315.641,77
315.651,113.400009155273
315.661,154.210006713867
315.671,128.730010986328
315.681,112.030006408691
315.691,111.400001525879
315.701,113.470008850098
315.711,85.3300018310547
315.721,33.3900032043457
315.73,16.6200008392334
315.74,-9.13000011444092
315.75,18.7600002288818
315.76,14.0300006866455
315.77,-7.59000015258789
315.78,-12.8100004196167
315.79,-31.8800010681152
315.8,-39.8300018310547
315.81,-41.5400009155273
315.82,-87.7400054931641
315.83,-95.3000030517578
315.84,-109.300003051758
315.85,-130.300003051758
315.86,-156.200012207031
315.87,-152.320007324219
315.88,-116.550003051758
315.89,-80.7100067138672
315.9,-51.1000022888184
315.91,-36.7800025939941
315.92,-10.1500005722046
315.925,100.310005187988
315.935,100.060005187988
315.945,116.580001831055
315.955,93.870002746582
315.965,20.4700012207031
315.975,34.5400009155273
315.985,77.5900039672852
315.995,85.0100021362305
316.005,64.4300003051758
316.015,42.560001373291
316.025,18.3400001525879
316.035,19.7700004577637
316.045,30.5200023651123
316.055,-28.0700016021729
316.065,-101.950004577637
316.075,-133.910003662109
316.082,-121.870002746582
316.092,-109.550003051758
316.102,-91.5600051879883
316.112,-79.9000015258789
316.122,-35.4500007629395
316.132,46.4400024414062
316.142,87.5700073242188
316.152,93.9000015258789
316.162,97.6500015258789
316.172,95.2000045776367
316.182,97.8600082397461
316.192,84.4200057983398
316.202,42.7000007629395
316.212,10.0400009155273
316.222,1.22000002861023
316.232,22.6400012969971
316.242,9.66000080108643
316.252,-14.2400007247925
316.262,-27.6500015258789
316.272,-25.3000011444092
316.281,-30.9000015258789
316.291,-30.9700012207031
316.301,-55.4400024414062
316.311,-54.6000022888184
316.321,-26.7000007629395
316.331,-6.72000026702881
316.341,13.3300008773804
316.351,45.3900032043457
316.361,55.7200012207031
316.371,67.8300018310547
316.381,71.2600021362305
316.391,63.5900039672852
316.401,49.1400032043457
316.411,42.1700019836426
316.421,18.6500015258789
316.431,-14.3800010681152
316.441,-37.5500030517578
316.451,-42.6300010681152
316.461,-43.6400032043457
316.471,-39.3400001525879
316.48,-34.3300018310547
316.49,-21.8000011444092
316.5,-1.05000007152557
316.51,11.0200004577637
316.52,8.61000061035156
316.53,22.2600002288818
316.54,35.6300010681152
316.55,39.2700004577637
316.56,44.0300025939941
316.57,43.9900016784668
316.58,46.930004119873
316.59,51.5900039672852
316.6,51.3800010681152
316.61,34.5400009155273
316.62,5.60000038146973
316.63,-15.2200002670288
316.64,-25.3400020599365
316.65,-45.4300003051758
316.66,-51.6900024414062
316.67,-58.3400039672852
316.674,-30.5900020599365
316.684,-23.6200008392334
316.694,-11.4800004959106
316.704,-26.7000007629395
316.714,-34.6100006103516
316.724,-16.5900001525879
316.734,-6.58000040054321
316.744,-26.3900012969971
316.754,-25.3000011444092
316.764,-20.8600006103516
316.774,-10.710000038147
316.784,2.97000002861023
316.794,-3.92000007629395
316.804,-2.38000011444092
316.814,6.37000036239624
316.824,2.59000015258789
316.832,7.59000015258789
316.842,17.9500007629395
316.852,16.8000011444092
316.862,20.7900009155273
316.872,39.8600006103516
316.882,33.4600028991699
316.892,19.7000007629395
316.902,19.4600009918213
316.912,7.59000015258789
316.922,-4.76000022888184
316.932,2.38000011444092
316.942,-14.1000003814697
316.952,-31.2900009155273
316.962,-25.5500011444092
316.972,-37.9700012207031
316.982,-55.0900039672852
316.992,-47.1100006103516
317.002,-52.1100006103516
317.012,-71.6800003051758
317.022,-57.680004119873
317.031,-58.1700019836426
317.041,-55.930004119873
317.051,-59.6400032043457
317.061,-46.7200012207031
317.071,-56.1000022888184
317.081,-59.0400009155273
317.091,-44.7300033569336
317.101,-44.310001373291
317.111,-58.4100036621094
317.121,-57.1500015258789
317.131,-47.8400039672852
317.141,-42.4900016784668
317.151,-36.75
317.161,-45.8500022888184
317.171,-46.5800018310547
317.181,-9.17000007629395
317.191,20.2600002288818
317.201,10.6700000762939
317.211,12.5600004196167
317.221,42.9800033569336
317.23,61.0400047302246
317.24,26.4900016784668
317.25,-0.240000009536743
317.26,27.8600006103516
317.27,47.0400009155273
317.28,44.7300033569336
317.29,79.6600036621094
317.3,145.110000610352
317.31,196.630004882812
317.32,228.510009765625
317.33,248.740005493164
317.34,267.470001220703
317.35,287.840026855469
317.36,298.650024414062
317.37,306.880004882812
317.38,294.590026855469
317.39,266.420013427734
317.4,246.500015258789
317.41,232.050018310547
317.42,178.740005493164
317.424,-21.7000007629395
317.434,-40.9500007629395
317.444,-67.7600021362305
317.454,-74.2700042724609
317.464,-91.3800048828125
317.474,-126.450004577637
317.484,-134.779998779297
317.494,-130.020004272461
317.504,-90.4400024414062
317.514,-61.0700035095215
317.524,-38.2900009155273
317.534,1.75000011920929
317.544,53.8300018310547
317.554,83.3300018310547
317.564,102.580001831055
317.574,118.330001831055
317.582,137.760009765625
317.592,136.600006103516
317.602,123.580009460449
317.612,121.900009155273
317.622,125.120002746582
317.632,130.550003051758
317.642,123.370002746582
317.652,108.43000793457
317.662,80.9200057983398
317.672,71.5400009155273
317.682,71.5
317.692,60.7200012207031
317.702,39.6500015258789
317.712,35.7700004577637
317.722,52.5700035095215
317.732,71.2900009155273
317.742,78.8500061035156
317.752,79.6900024414062
317.762,87.4300079345703
317.772,101.390007019043
317.781,97.6100082397461
317.791,88.2000045776367
317.801,76.1600036621094
317.811,67.8300018310547
317.821,64.0800018310547
317.831,78.2600021362305
317.841,74.5100021362305
317.851,74.2300033569336
317.861,74.5100021362305
317.871,73.25
317.881,74.6500015258789
317.891,63.7300033569336
317.901,30.6600017547607
317.911,17.7400016784668
317.921,8.19000053405762
317.931,-9.45000076293945
317.941,-22.0100002288818
317.951,-14.4200010299683
317.961,-9.48000049591064
317.971,-3.4300000667572
317.98,9.66000080108643
317.99,17.3900012969971
318,25.5800018310547
318.01,34.8900032043457
318.02,25.6200008392334
318.03,-7.1700005531311
318.04,-8.75
318.05,4.30000019073486
318.06,12.9100008010864
318.07,39.9300003051758
318.08,66.1500015258789
318.09,117.280006408691
318.1,158.270004272461
318.11,164.570007324219
318.12,162.920013427734
318.13,156.870010375977
318.14,170.34001159668
318.15,149.660003662109
318.16,110.600006103516
318.17,100.270004272461
318.174,79.4500045776367
318.184,92.4000015258789
318.194,84.8000030517578
318.204,60.6900024414062
318.214,31.9900016784668
318.224,12.1100006103516
318.234,13.0200004577637
318.244,-2.31000018119812
318.254,-27.7200012207031
318.264,-33.6700019836426
318.274,-23.5500011444092
318.284,-8.07999992370605
318.294,-13.6500005722046
318.304,-42.0000038146973
318.314,-74.4400024414062
318.324,-95.370002746582
318.332,-110.880004882812
318.342,-127.640007019043
318.352,-178.250015258789
318.362,-219.410003662109
318.372,-225.400009155273
318.382,-219.900009155273
318.392,-194.320007324219
318.402,-183.640014648438
318.412,-192.530014038086
318.422,-158.410003662109
318.432,-90.6100006103516
318.442,-24.5700016021729
318.452,16.6599998474121
318.462,29.4700012207031
318.472,39.9000015258789
318.482,63.2800025939941
318.492,94.8100051879883
318.502,125.330009460449
318.512,131
318.522,114.730003356934
318.531,146.860000610352
318.541,183.190002441406
318.551,232.640014648438
318.561,280.100006103516
318.571,292.25
318.581,283.779998779297
318.591,285.880004882812
318.601,278.700012207031
318.611,243.880004882812
318.621,140.910003662109
318.631,45.0100021362305
318.641,-11.8600006103516
318.651,-56.0000038146973
318.661,-87.390007019043
318.671,-115.92000579834
318.681,-126.630004882812
318.691,-117.490005493164
318.701,-114.940002441406
318.711,-82.4600067138672
318.721,-29.9900016784668
318.729,6.37000036239624
318.739,34.5400009155273
318.749,49.0300025939941
318.759,63.8000030517578
318.769,85.7800064086914
318.779,88.9700012207031
318.789,96.7700042724609
318.799,123.410003662109
318.809,125.190002441406
318.819,135.730010986328
318.829,174.330001831055
318.839,143.950012207031
318.849,82.5300064086914
318.859,64.5400009155273
318.869,53.8600044250488
318.879,24.0100002288818
318.889,-39.060001373291
318.899,-100.340003967285
318.909,-124.42000579834
318.919,-121.410003662109
318.924,-113.640007019043
318.934,-65.0600051879883
318.944,-54.1400032043457
318.954,-46.9700012207031
318.964,-52.810001373291
318.974,-55.7200012207031
318.984,-24.5000019073486
318.994,-15.3300008773804
319.004,29.9600009918213
319.014,65.9400024414062
319.024,95.7900009155273
319.034,129.290008544922
319.044,158.550003051758
319.054,161.450012207031
319.064,146.470001220703
319.074,132.889999389648
319.082,128.870010375977
319.092,103.140007019043
319.102,88.3000030517578
319.112,55.3000030517578
319.122,44.8300018310547
319.132,62.1900024414062
319.142,67.7200012207031
319.152,63.5200042724609
319.162,58.6900024414062
319.172,48.0500030517578
319.182,59.430004119873
319.192,61.810001373291
319.202,30.2700023651123
319.212,2.13000011444092
319.222,-19.3200016021729
319.232,-28.0300006866455
319.242,-21.5200004577637
319.252,-61.9100036621094
319.262,-77.9800033569336
319.272,-83.4000015258789
319.281,-63.3500022888184
319.291,-7.70000028610229
319.301,30.480001449585
319.311,77.5200042724609
319.321,147.280014038086
319.331,209.650009155273
319.341,265.370025634766
319.351,316.120025634766
319.361,313.320007324219
319.371,273.840026855469
319.381,206.530014038086
319.391,131.84001159668
319.401,53.3400039672852
319.411,5.53000020980835
319.421,-53.5800018310547
319.431,-102.860008239746
319.441,-104.860008239746
319.451,-91.7000045776367
319.461,-90.8200073242188
319.471,-79.1000061035156
319.479,-90.0200042724609
319.489,-119.350006103516
319.499,-145.139999389648
319.509,-166.910003662109
319.519,-222.810012817383
319.529,-264
319.539,-256.760009765625
319.549,-264.320007324219
319.559,-224.730010986328
319.569,-148.050003051758
319.579,-74.0600051879883
319.589,1.12000000476837
319.599,51.7600021362305
319.609,80.6000061035156
319.619,110.18000793457
319.629,134.570007324219
319.639,142.270004272461
319.649,122.500007629395
319.659,96.2500076293945
319.669,67.0200042724609
319.673,-47.0000038146973
319.683,-68.6000061035156
319.693,-93.1300048828125
319.703,-103.070007324219
319.713,-107.940002441406
319.723,-101.150001525879
319.733,-79.4100036621094
319.743,-44.0300025939941
319.753,-29.2600021362305
319.763,-15.1500005722046
319.773,-5.53000020980835
319.783,17.9900016784668
319.793,46.6900024414062
319.803,61.4600028991699
319.813,70.5600051879883
319.823,73.390007019043
319.832,87.9500045776367
319.842,101.640007019043
319.852,102.790008544922
319.862,95.8600082397461
319.872,84.1700057983398
319.882,75.4600067138672
319.892,67.4400024414062
319.902,65.8300018310547
319.912,58.9400024414062
319.922,55.3300018310547
319.932,58.4100036621094
319.942,51.4800033569336
319.952,37.9700012207031
319.962,16.060001373291
319.972,-11.8600006103516
319.982,-60.1600036621094
319.992,-115.850006103516
320.002,-136.530014038086
320.012,-146.960006713867
320.022,-139.610000610352
320.031,-99.5700073242188
320.041,-56.3500022888184
320.051,-18.060001373291
320.061,24.4300003051758
320.071,56.2400016784668
320.081,84.1000061035156
320.091,90.120002746582
320.101,92.5400009155273
320.111,92.5000076293945
320.121,87.2900009155273
320.131,84.7000045776367
320.141,81.9000015258789
320.151,88.3400039672852
320.161,111.160003662109
320.171,145.980010986328
320.181,175.560012817383
320.191,198.410003662109
320.201,220.040008544922
320.211,238.940017700195
320.221,259.170013427734
320.229,274.610015869141
320.239,272.050018310547
320.249,228.300018310547
320.259,146.050003051758
320.269,46.1300010681152
320.279,-22.4000015258789
320.289,-59.7100028991699
320.299,-76.6500015258789
320.309,-62.7500038146973
320.319,-51.7600021362305
320.329,-27.5800018310547
320.339,12.2500009536743
320.349,58.8300018310547
320.359,89.8400039672852
320.369,113.470008850098
320.379,117.460006713867
320.389,125.540008544922
320.399,156.970001220703
320.409,171.010009765625
320.419,140.700012207031
320.423,54.6700019836426
320.433,43.8900032043457
320.443,38.5300025939941
320.453,58.9700012207031
320.463,71.120002746582
320.473,56.4500045776367
320.483,35.3800010681152
320.493,10.0400009155273
320.503,5.04000043869019
320.513,2.73000001907349
320.523,-10.2900009155273
320.533,-32.6900024414062
320.543,-41.3300018310547
320.553,-22.7800006866455
320.563,-8.75
320.573,-7.38000011444092
320.582,-4.51000022888184
320.592,0.910000026226044
320.602,14.6600008010864
320.612,28.8000011444092
320.622,33.1400032043457
320.632,26.2500019073486
320.642,33.9800033569336
320.652,33.3900032043457
320.662,32.060001373291
320.672,25.1300010681152
320.682,-1.54000008106232
320.692,-14.2400007247925
320.702,-17.0799999237061
320.712,-19.3900012969971
320.722,-26.0000019073486
320.732,-28.8700008392334
320.742,-33.9099998474121
320.752,-32.1599998474121
320.762,-34.2600021362305
320.772,-35.9099998474121
320.781,-26.6300010681152
320.791,-30.730001449585
320.801,-35.4200019836426
320.811,-41.0500030517578
320.821,-45.5700035095215
320.831,-48.4700012207031
320.841,-51.8300018310547
320.851,-45.1800003051758
320.861,-37.1300010681152
320.871,-31.810001373291
320.881,-24.7400016784668
320.891,-25.2000007629395
320.901,-25.5100021362305
320.911,-18.6900005340576
320.921,-19.6700000762939
320.931,-15.0100011825562
320.941,-11.5100002288818
320.951,-3.85000014305115
320.961,-0.590000033378601
320.971,-5.95000028610229
320.979,-13.4000005722046
320.989,-19.2100009918213
320.999,-29.3300018310547
321.009,-50.5400009155273
321.019,-66.5699996948242
321.029,-72.620002746582
321.039,-68.0699996948242
321.049,-74.9300003051758
321.059,-76.1900024414062
321.069,-65.1300048828125
321.079,-68.9800033569336
321.089,-66.3600006103516
321.099,-65.5500030517578
321.109,-61.0000038146973
321.119,-32.7900009155273
321.129,-20.4400005340576
321.139,-18.9000015258789
321.149,-5.84000015258789
321.159,3.85000014305115
321.169,-10.9500007629395
321.173,-26.1100006103516
321.183,-9.0600004196167
321.193,10.2500009536743
321.203,24.6000003814697
321.213,19.3900012969971
321.223,12.4200010299683
321.233,4.76000022888184
321.243,-16.9400005340576
321.253,-38.5300025939941
321.263,-53.370002746582
321.273,-60.930004119873
321.283,-70.9400024414062
321.293,-84.5900039672852
321.303,-96.6300048828125
321.313,-108.950004577637
321.323,-114.270004272461
321.332,-125.650009155273
321.342,-122.92000579834
321.352,-119.380004882812
321.362,-100.310005187988
321.372,-95.0900039672852
321.382,-91.6600036621094
321.392,-77.9400024414062
321.402,-61.2500038146973
321.412,-39.5500030517578
321.422,-21.9400005340576
321.432,-0.770000040531158
321.442,14.9400005340576
321.452,17.1800003051758
321.462,6.6100001335144
321.472,-4.0600004196167
321.482,-0.490000009536743
321.492,7.66000032424927
321.502,5.18000030517578
321.512,0.940000057220459
321.522,-3.78000020980835
321.531,-11.7900009155273
321.541,-14.8400011062622
321.551,-11.9000005722046
321.561,1.64000010490417
321.571,20.7500019073486
321.581,31.8500022888184
321.591,43.8500022888184
321.601,50.8500022888184
321.611,62.4400024414062
321.621,62.6100044250488
321.631,52.9200019836426
321.641,36.5700035095215
321.651,41.0200004577637
321.661,56.8400039672852
321.671,69.120002746582
321.681,80.25
321.691,100.310005187988
321.701,124.210006713867
321.711,141.889999389648
321.721,144.270004272461
321.729,118.650009155273
321.739,88.4400024414062
321.749,52.4600028991699
321.759,22.5000019073486
321.769,0.940000057220459
321.779,-23.4500007629395
321.789,-32.2000007629395
321.799,-27.0200004577637
321.809,-18.060001373291
321.819,-16.8000011444092
321.829,-26.1100006103516
321.839,-19.7400016784668
321.849,-30.6600017547607
321.859,-54.0400009155273
321.869,-83.2300033569336
321.879,-129.850006103516
321.889,-174.160003662109
321.899,-206.990005493164
321.909,-233.060012817383
321.919,-256.059997558594
321.924,-52.3900032043457
321.934,26.3200016021729
321.944,77.9800033569336
321.954,111.230003356934
321.964,123.970008850098
321.974,109.690002441406
321.984,76.4000015258789
321.994,48.5800018310547
322.004,-3.53000020980835
322.014,-41.8900032043457
322.024,-75.9800033569336
322.034,-112.070007324219
322.044,-117.070007324219
322.054,-120.120002746582
322.064,-134.820007324219
322.074,-128.660003662109
322.082,-101.640007019043
322.092,-69.2300033569336
322.102,-34.9300003051758
322.112,-25.1600017547607
322.122,-30.5200023651123
322.132,-38.6700019836426
322.142,-50.8200035095215
322.152,-66.5300064086914
322.162,-83.3000030517578
322.172,-92.640007019043
322.182,-89.0400009155273
322.192,-66.8500061035156
322.202,-28.2800006866455
322.212,1.82000005245209
322.222,13.4700002670288
322.232,10.1800003051758
322.242,14.5600004196167
322.252,24.9500007629395
322.262,15.4700002670288
322.272,-17.4300003051758
322.281,-57.1500015258789
322.291,-119.280006408691
322.301,-181.540008544922
322.311,-198.410003662109
322.321,-208.18000793457
322.331,-194.210006713867
322.341,-145.070007324219
322.351,-46.5500030517578
322.361,47.8800010681152
322.371,125.650009155273
322.381,173.040008544922
322.391,222.740005493164
322.401,286.300018310547
322.411,301.170013427734
322.421,265.160003662109
322.431,201.980010986328
322.441,136.080001831055
322.451,81.4100036621094
322.461,44.5900039672852
322.471,-0.560000002384186
322.479,-60.4800033569336
322.489,-100.380004882812
322.499,-129.43000793457
322.509,-150.150009155273
322.519,-161.940002441406
322.529,-143.670013427734
322.539,-99.7500076293945
322.549,-48.5400009155273
322.559,28.8700008392334
322.569,112.980003356934
322.579,178.220001220703
322.589,226.030014038086
322.599,252.420013427734
322.609,240.480010986328
322.619,216.960006713867
322.629,192.320007324219
322.639,160.440002441406
322.649,132.540008544922
322.659,108.92000579834
322.669,84.2800064086914
322.673,-60.9700012207031
322.683,-96.1800079345703
322.693,-136.18000793457
322.703,-178.110015869141
322.713,-205.240005493164
322.723,-243.950012207031
322.733,-270.370025634766
322.743,-277.860015869141
322.753,-260.710021972656
322.763,-216.790008544922
322.773,-145.84001159668
322.783,-69.9300003051758
322.793,-5.07000017166138
322.803,52.5000038146973
322.813,107.900001525879
322.823,146.190002441406
322.832,166.490005493164
322.842,128.240005493164
322.852,53.5100021362305
322.862,-17.6700000762939
322.872,-61.8800010681152
322.882,-90.120002746582
322.892,-121.870002746582
322.902,-169.960006713867
322.912,-185.990005493164
322.922,-154.630004882812
322.932,-93.5200042724609
322.942,-66.9200057983398
322.952,-75.5600051879883
322.962,-76.3000030517578
322.972,-87.9500045776367
322.982,-98.9400024414062
322.992,-124.740005493164
323.002,-162.68000793457
323.012,-176.470001220703
323.022,-150.670013427734
323.03,-121.380004882812
323.04,-119.140007019043
323.05,-111.330001831055
323.06,-90.7200012207031
323.07,-58.060001373291
323.08,-26.7000007629395
323.09,-11.8600006103516
323.1,9.38000011444092
323.11,35.6300010681152
323.12,72.3100051879883
323.13,95.6900024414062
323.14,94.640007019043
323.15,92.3600006103516
323.16,98.4900054931641
323.17,112.070007324219
323.18,106.290008544922
323.19,84.7000045776367
323.2,56.9800033569336
323.21,38.5700035095215
323.22,24.2200012207031
323.229,-2.69000005722046
323.239,-29.9900016784668
323.249,-56.6600036621094
323.259,-67.9000015258789
323.269,-53.1600036621094
323.279,-37.870002746582
323.289,-28.1000003814697
323.299,-13.1600008010864
323.309,15.9600009918213
323.319,49.1400032043457
323.329,70.5200042724609
323.339,74.6900024414062
323.349,68.2800064086914
323.359,66.2900009155273
323.369,68.5300064086914
323.379,35.1000022888184
323.389,-15.3300008773804
323.399,-39.8600006103516
323.409,-42.9800033569336
323.419,-23.1000003814697
323.424,97.8200073242188
323.434,76.7900009155273
323.444,61.4600028991699
323.454,44.5900039672852
323.464,52.3200035095215
323.474,26.8800010681152
323.484,-7.24000024795532
323.494,-24.3900012969971
323.504,-18.4100017547607
323.514,-16.4500007629395
323.524,19
323.534,37.7600021362305
323.544,19.7400016784668
323.554,59.0400009155273
323.564,78.4000015258789
323.574,53.370002746582
323.582,31.7400016784668
323.592,15.6100006103516
323.602,12.8800010681152
323.612,-8.19000053405762
323.622,-39.9700012207031
323.632,-65.0300064086914
323.642,-91.9100036621094
323.652,-111.51000213623
323.662,-125.650009155273
323.672,-126.240005493164
323.682,-118.090003967285
323.692,-104.190002441406
323.702,-87.0400009155273
323.712,-104.020004272461
323.722,-68.8100051879883
323.732,-38.4300003051758
323.742,-39.5500030517578
323.752,-9.24000072479248
323.762,-15.4000005722046
323.772,-10.7800006866455
323.78,-16.5200004577637
323.79,-47.6000022888184
323.8,-60.5500030517578
323.81,-25.8300018310547
323.82,-1.47000002861023
323.83,38.6000022888184
323.84,57.3600044250488
323.85,40.9800033569336
323.86,42.2400016784668
323.87,51.4800033569336
323.88,22.3600006103516
323.89,-26.1800003051758
323.9,-26.3500003814697
323.91,-48.4700012207031
323.92,-72.5900039672852
323.93,-70.6300048828125
323.94,-57.0500030517578
323.95,-45.0400009155273
323.96,-77.5600051879883
323.97,-92.3300018310547
323.979,-74.4100036621094
323.989,-63.560001373291
323.999,-79.2000045776367
324.009,-91.7300033569336
324.019,-84.2400054931641
324.029,-63.1700019836426
324.039,-70.4900054931641
324.049,-61.180004119873
324.059,-53.4100036621094
324.069,-35.870002746582
324.079,-17.9500007629395
324.089,2.17000007629395
324.099,27.1600017547607
324.109,65.7300033569336
324.119,85.2200012207031
324.129,75.4600067138672
324.139,58.4500045776367
324.149,38.8800010681152
324.159,5.91000032424927
324.169,-10.3600006103516
324.173,-37.4800033569336
324.183,-41.7200012207031
324.193,-40.3200035095215
324.203,-37.1700019836426
324.213,-29.0500011444092
324.223,-0.980000019073486
324.233,35.310001373291
324.243,53.7600021362305
324.253,84.2400054931641
324.263,85.9900054931641
324.273,80.7100067138672
324.283,58.1700019836426
324.293,14.7000007629395
324.303,-30.2000007629395
324.313,-58.4500045776367
324.323,-84.1700057983398
324.332,-107.340003967285
324.342,-134.050003051758
324.352,-109.860008239746
324.362,-94.7400054931641
324.372,-89.8400039672852
324.382,-12.7400007247925
324.392,38.810001373291
324.402,68.7000045776367
324.412,71.890007019043
324.422,50.5400009155273
324.432,1.22000002861023
324.442,-65.5200042724609
324.452,-118.93000793457
324.462,-131.070007324219
324.472,-129.850006103516
324.482,-113.68000793457
324.492,-92.890007019043
324.502,-26.0000019073486
324.512,27.9300022125244
324.522,56.1700019836426
324.53,83.0900039672852
324.54,100.100006103516
324.55,86.4500045776367
324.56,57.8500022888184
324.57,33.9800033569336
324.58,10.8100004196167
324.59,-15.2600011825562
324.6,-21.1700000762939
324.61,6.05000019073486
324.62,34.3300018310547
324.63,55.120002746582
324.64,91.2400054931641
324.65,155.43000793457
324.66,184.380004882812
324.67,191.170013427734
324.68,199.18000793457
324.69,187.84001159668
324.7,154.700012207031
324.71,131.700012207031
324.72,121.550003051758
324.729,110.600006103516
324.739,111.400001525879
324.749,122.67000579834
324.759,125.050003051758
324.769,109.720008850098
324.779,101.290008544922
324.789,90.1900024414062
324.799,50.3300018310547
324.809,-14.7000007629395
324.819,-71.8500061035156
324.829,-119.660003662109
324.839,-159.110000610352
324.849,-185.640014648438
324.859,-203.870010375977
324.869,-214.160003662109
324.879,-220.810012817383
324.889,-206.500015258789
324.899,-185.500015258789
324.909,-151.93000793457
324.919,-117.950004577637
324.924,-17.9900016784668
324.934,-52.2900009155273
324.944,-90.0200042724609
324.954,-111.440002441406
324.964,-138.560012817383
324.974,-170.240005493164
324.984,-178.570007324219
324.994,-179.410003662109
325.004,-187.84001159668
325.014,-180.630004882812
325.024,-141.150009155273
325.034,-115.850006103516
325.044,-73.9500045776367
325.054,-24.1800003051758
325.064,14.2100009918213
325.074,39.370002746582
325.082,49.7700004577637
325.092,71.640007019043
325.102,48.4700012207031
325.112,7.38000011444092
325.122,-18.1600017547607
325.132,-33.1400032043457
325.142,-62.3000030517578
325.152,-67.7900009155273
325.162,-19.3500003814697
325.172,25.060001373291
325.182,58.1300010681152
325.192,107.340003967285
325.202,146.160003662109
325.212,176.920013427734
325.222,203.210006713867
325.232,211.640014648438
325.242,198.270004272461
325.252,169.850006103516
325.262,128.480010986328
325.272,96.3500061035156
325.28,31.9900016784668
325.29,-46.3400039672852
325.3,-86.2000045776367
325.31,-110.070007324219
325.32,-127.400009155273
325.33,-98.9400024414062
325.34,-71.2600021362305
325.35,-68.9100036621094
325.36,-53.060001373291
325.37,-15.3300008773804
325.38,6.40000009536743
325.39,-6.40000009536743
325.4,-53.4100036621094
325.41,-136.080001831055
325.42,-215.530014038086
325.43,-291.160003662109
325.44,-349.400024414062
325.45,-385.140014648438
325.46,-427.030029296875
325.47,-409.600006103516
325.479,-277.300018310547
325.489,-110.250007629395
325.499,45.5300025939941
325.509,163.830001831055
325.519,237.400009155273
325.529,284.370025634766
325.539,336.940002441406
325.549,352.590026855469
325.559,306.880004882812
325.569,261.059997558594
325.579,176.710006713867
325.589,98.4200057983398
325.599,85.0500030517578
325.609,44.7300033569336
325.619,-25.5800018310547
325.629,-91.0300064086914
325.639,-153.120010375977
325.649,-180.490005493164
325.659,-197.120010375977
325.669,-182.560012817383
325.673,142.620010375977
325.683,119.450004577637
325.693,126.450004577637
325.703,115.600006103516
325.713,91.9800033569336
325.723,85.1900024414062
325.733,69.5800018310547
325.743,39.4800033569336
325.753,31.7400016784668
325.763,63.1400032043457
325.773,97.0200042724609
325.783,141.400009155273
325.793,204.780014038086
325.803,243.110015869141
325.813,244.510009765625
325.823,215.950012207031
325.832,157.600006103516
325.842,81.9000015258789
325.852,5.63000011444092
325.862,-56.310001373291
325.872,-107.830001831055
325.882,-136.220001220703
325.892,-153.400009155273
325.902,-136.670013427734
325.912,-113.220008850098
325.922,-90.6500015258789
325.932,-52.5000038146973
325.942,-30.9700012207031
325.952,12.0400009155273
325.962,62.4000015258789
325.972,118.230003356934
325.982,180.740005493164
325.992,232.150009155273
326.002,264.210021972656
326.012,260.920013427734
326.022,214.020004272461
326.03,129.110000610352
326.04,31.3900012969971
326.05,-69.2300033569336
326.06,-167.230010986328
326.07,-233.380004882812
326.08,-259.450012207031
326.09,-279.160003662109
326.1,-293.260009765625
326.11,-289.970001220703
326.12,-302.400024414062
326.13,-313.180023193359
326.14,-293.300018310547
326.15,-277.930023193359
326.16,-266.240020751953
326.17,-206.990005493164
326.18,-113.960006713867
326.19,9.97000026702881
326.2,128.240005493164
326.21,208.910003662109
326.22,232.710006713867
326.229,187.18000793457
326.239,131.600006103516
326.249,76.5400009155273
326.259,32.060001373291
326.269,-6.89000034332275
326.279,-44.6600036621094
326.289,-65.0300064086914
326.299,-86.9000015258789
326.309,-94.1100082397461
326.319,-48.5800018310547
326.329,-11.3400001525879
326.339,11.0200004577637
326.349,28.3800010681152
326.359,39.3400001525879
326.369,57.6100044250488
326.379,59.9900016784668
326.389,48.370002746582
326.399,22.4000015258789
326.409,2.06000018119812
326.419,-2.83000016212463
326.423,-18.9700012207031
326.433,11.3400001525879
326.443,31.4600009918213
326.453,20.5100002288818
326.463,12.9100008010864
326.473,23.1000003814697
326.483,18.7200012207031
326.493,-34.6500015258789
326.503,-65.1700057983398
326.513,-40.2100028991699
326.523,25.0900020599365
326.533,57.4000015258789
326.543,19.4600009918213
326.553,-1.92000007629395
326.563,11.9000005722046
326.573,20.9600009918213
326.582,-32.4400024414062
326.592,-54.2800025939941
326.602,-18.2700004577637
326.612,1.40000009536743
326.622,-19.1100006103516
326.632,-23.3400020599365
326.642,-15.6100006103516
326.652,-9.03000068664551
326.662,2.48000001907349
326.672,5.91000032424927
326.682,-8.47000026702881
326.692,-3.92000007629395
326.702,15.7800006866455
326.712,25.6500015258789
326.722,35.8000030517578
326.732,58.6600036621094
326.742,96.1100082397461
326.752,103.840003967285
326.762,84.2400054931641
326.772,64.6399993896484
326.78,32.0200004577637
326.79,7.24000024795532
326.8,-21.2400016784668
326.81,-42.6600036621094
326.82,-32.4400024414062
326.83,-7.66000032424927
326.84,32.7900009155273
326.85,75.9800033569336
326.86,118.750007629395
326.87,151.860000610352
326.88,176.750015258789
326.89,188.720016479492
326.9,171.460006713867
326.91,124.980003356934
326.92,80.3600006103516
326.93,37.9700012207031
326.94,1.26000010967255
326.95,-4.90000009536743
326.96,13.0200004577637
326.97,28.9400005340576
326.979,37.7300033569336
326.989,54.560001373291
326.999,79.3400039672852
327.009,76.370002746582
327.019,60.6900024414062
327.029,31.6400012969971
327.039,15.5400009155273
327.049,4.62000036239624
327.059,-22.1200008392334
327.069,-29.3600006103516
327.079,-17.5700016021729
327.089,-16.2000007629395
327.099,-13.4400005340576
327.109,-14.9100008010864
327.119,-12.7400007247925
327.129,-29.7800006866455
327.139,-49.7700004577637
327.149,-70.1000061035156
327.159,-85.8200073242188
327.169,-95.1300048828125
327.173,58.5900039672852
327.183,90.370002746582
327.193,123.340003967285
327.203,155.080001831055
327.213,163.200012207031
327.223,154.310012817383
327.233,158.370010375977
327.243,173.110000610352
327.253,193.970016479492
327.263,209.720016479492
327.273,226.870010375977
327.283,273
327.293,315.630004882812
327.303,331.410003662109
327.313,330.500030517578
327.323,321.330017089844
327.331,319.060028076172
327.341,305.200012207031
327.351,273.980010986328
327.361,241.880004882812
327.371,200.130004882812
327.381,170.940002441406
327.391,156.380004882812
327.401,103.42000579834
327.411,81.8600006103516
327.421,61.810001373291
327.431,31.8800010681152
327.441,22.6100006103516
327.451,1.85000014305115
327.461,14.0000009536743
327.471,30.4100017547607
327.481,53.2300033569336
327.491,69.0200042724609
327.501,77.5200042724609
327.511,117.630004882812
327.521,146.400009155273
327.53,167.120010375977
327.54,149.620010375977
327.55,126.590003967285
327.56,115.710006713867
327.57,107.900001525879
327.58,92.4700012207031
327.59,68.9500045776367
327.6,41.2300033569336
327.61,25.3400020599365
327.62,15.3600006103516
327.63,2.13000011444092
327.64,-37.870002746582
327.65,-77.5600051879883
327.66,-89.0700073242188
327.67,-95.5100021362305
327.68,-94.2500076293945
327.69,-112.940002441406
327.7,-113.68000793457
327.71,-99.1500015258789
327.72,-85.4700012207031
327.729,-64.2900009155273
327.739,-57.7800025939941
327.749,-56.8000030517578
327.759,-51.5200042724609
327.769,-31.4300022125244
327.779,-21.2800006866455
327.789,-36.120002746582
327.799,-54.6300010681152
327.809,-79.5500030517578
327.819,-84.0700073242188
327.829,-76.2600021362305
327.839,-67.620002746582
327.849,-66.3600006103516
327.859,-70.2400054931641
327.869,-63.2400016784668
327.879,-66.2200012207031
327.889,-59.5000038146973
327.899,-56.310001373291
327.909,-65.5200042724609
327.919,-60.7900047302246
327.923,-22.6400012969971
327.933,-9.38000011444092
327.943,1.92000007629395
327.953,40.6300010681152
327.963,77.4500045776367
327.973,97.370002746582
327.983,89.7000045776367
327.993,83.5400009155273
328.003,90.370002746582
328.013,97.0500030517578
328.023,111.120002746582
328.033,106.150001525879
328.043,100.870002746582
328.053,83.6800003051758
328.063,46.9700012207031
328.073,7.07000017166138
328.081,-21.3800010681152
328.091,-50.7800025939941
328.101,-55.680004119873
328.111,-32.4400024414062
328.121,3.92000007629395
328.131,52.430004119873
328.141,92.0800018310547
328.151,122.220008850098
328.161,141.5
328.171,138.740005493164
328.181,132.93000793457
328.191,126.560005187988
328.201,107.550003051758
328.211,76.8200073242188
328.221,44.8000030517578
328.231,22.8200016021729
328.241,20.1200008392334
328.251,42.7700004577637
328.261,66.4600067138672
328.271,65.3100051879883
328.28,55.7900009155273
328.29,40.1100006103516
328.3,18.0200004577637
328.31,-6.96000051498413
328.32,-52.3600006103516
328.33,-84.6300048828125
328.34,-106.050003051758
328.35,-108.01000213623
328.36,-86.9700012207031
328.37,-77.9100036621094
328.38,-69.1900024414062
328.39,-39.9300003051758
328.4,-8.78000068664551
328.41,32.4800033569336
328.42,62.5400047302246
328.43,68.5600051879883
328.44,67.9000015258789
328.45,80.4300003051758
328.46,83.5800018310547
328.47,64.8899993896484
328.479,33.0699996948242
328.489,-20.3300018310547
328.499,-67.9000015258789
328.509,-88.1600036621094
328.519,-118.470008850098
328.529,-141.960006713867
328.539,-145.910003662109
328.549,-138.980010986328
328.559,-113.01000213623
328.569,-69.890007019043
328.579,-22.5700016021729
328.589,27.5400009155273
328.599,61.810001373291
328.609,92.3600006103516
328.619,131.560012817383
328.629,159.350006103516
328.639,171.080001831055
328.649,151.34001159668
328.659,124.950004577637
328.669,94.390007019043
328.673,6.30000019073486
328.683,20.1900005340576
328.693,38.7100028991699
328.703,76.6500015258789
328.713,112.770004272461
328.723,141.820007324219
328.733,137.440002441406
328.743,131.980010986328
328.753,124.67000579834
328.763,131.279998779297
328.773,134.889999389648
328.783,94.7100067138672
328.793,57.120002746582
328.803,35.4900016784668
328.813,19.1400012969971
328.823,6.79000043869019
328.831,-16.8000011444092
328.841,-42.7300033569336
328.851,-51.2400016784668
328.861,-47.2500038146973
328.871,-30.0300006866455
328.881,-31.3900012969971
328.891,-51.2400016784668
328.901,-73.5300064086914
328.911,-76.0200042724609
328.921,-75.3500061035156
328.931,-80.390007019043
328.941,-110.390007019043
328.951,-120.820007324219
328.961,-92.9900054931641
328.971,-46.6500015258789
328.981,11.4800004959106
328.991,63.5200042724609
329.001,79.5900039672852
329.011,92.3300018310547
329.021,102.900001525879
329.03,118.440002441406
329.04,120.780006408691
329.05,110.390007019043
329.06,104.580001831055
329.07,104.050003051758
329.08,113.750007629395
329.09,134.75
329.1,162.080001831055
329.11,181.93000793457
329.12,183.260009765625
329.13,189.380004882812
329.14,188.750015258789
329.15,185.570007324219
329.16,157.530014038086
329.17,101.080001831055
329.18,57.4700012207031
329.19,44.5200004577637
329.2,50.680004119873
329.21,42.310001373291
329.22,33.5300025939941
329.229,39.0200004577637
329.239,52.2200012207031
329.249,66.5300064086914
329.259,60.2300033569336
329.269,19.560001373291
329.279,-9.10000038146973
329.289,-23.6200008392334
329.299,-36.7100028991699
329.309,-60.620002746582
329.319,-105.660003662109
329.329,-122.43000793457
329.339,-107.830001831055
329.349,-80.6000061035156
329.359,-66.3600006103516
329.369,-70.2800064086914
329.379,-66.9900054931641
329.389,-35.2800025939941
329.399,-2.38000011444092
329.409,16.1000003814697
329.419,5.77000045776367
329.423,-12.0000009536743
329.433,-44.4500007629395
329.443,-42.2100028991699
329.453,-17.810001373291
329.463,-10.0400009155273
329.473,-18.9000015258789
329.483,-16.060001373291
329.493,8.61000061035156
329.503,42.1000022888184
329.513,62.1900024414062
329.523,53.9700012207031
329.533,46.9700012207031
329.543,77.5200042724609
329.553,102.340003967285
329.563,111.090003967285
329.573,114.340003967285
329.581,115.43000793457
329.591,137.440002441406
329.601,163.970001220703
329.611,163.410003662109
329.621,140.070007324219
329.631,118.650009155273
329.641,107.200004577637
329.651,85.7100067138672
329.661,36.6100006103516
329.671,-21.980001449585
329.681,-50.4700012207031
329.691,-45.9500007629395
329.701,-33.1100006103516
329.711,-43.2900009155273
329.721,-41.7900009155273
329.731,-13.1200008392334
329.741,11.6200008392334
329.751,31.9500007629395
329.761,39.7900009155273
329.771,33.7000007629395
329.78,43.9600028991699
329.79,50.5000038146973
329.8,39.620002746582
329.81,17.6400012969971
329.82,-7.45000028610229
329.83,-14.0000009536743
329.84,-14.1700010299683
329.85,-21.4900016784668
329.86,-31.0400009155273
329.87,-13.5800008773804
329.88,13.1200008392334
329.89,31.9200019836426
329.9,43.7800025939941
329.91,66.0800018310547
329.92,80.7800064086914
329.93,70.4900054931641
329.94,66.8800048828125
329.95,61.560001373291
329.96,56.870002746582
329.97,46.4800033569336
329.979,39.7900009155273
329.989,37.2700004577637
329.999,38.5
330.009,37.5900001525879
330.019,22.0800018310547
330.029,8.68000030517578
330.039,-2.38000011444092
330.049,-8.75
330.059,-13.1200008392334
330.069,-8.05000019073486
330.079,-15.0500011444092
330.089,-11.6200008392334
330.099,-1.33000004291534
330.109,-3.04000020027161
330.119,-3.81000018119812
330.129,3.08000016212463
330.139,7.49000024795532
330.149,11.9000005722046
330.159,19.560001373291
330.169,19.810001373291
330.173,-5.18000030517578
330.183,-13.3000001907349
330.193,-14.9800004959106
330.203,-9.69000053405762
330.213,-5.04000043869019
330.223,-5.21000003814697
330.233,1.64000010490417
330.243,9.83000087738037
330.253,25.8300018310547
330.263,30.5200023651123
330.273,28.310001373291
330.283,37.6900024414062
330.293,31.3600006103516
330.303,14.0700006484985
330.313,16.2700004577637
330.323,23.3800010681152
330.331,21.3500003814697
330.341,22.4300003051758
330.351,12.5300006866455
330.361,5.46000003814697
330.371,1.89000010490417
330.381,-3.88000011444092
330.391,-15.6400003433228
330.401,-10.2500009536743
330.411,-6.96000051498413
330.421,1.47000002861023
330.431,15.6100006103516
330.441,30.8300018310547
330.451,34.6100006103516
330.461,55.8600044250488
330.471,67.370002746582
330.481,67.2000045776367
330.491,45.0100021362305
330.501,29.2900009155273
330.511,5.14000034332275
330.521,-3.46000027656555
330.53,-22.0500011444092
330.54,-40.1400032043457
330.55,-49.1400032043457
330.56,-25.060001373291
330.57,-9.27000045776367
330.58,-0.590000033378601
330.59,10.5700006484985
330.6,3.99000024795532
330.61,-5.21000003814697
330.62,0.730000019073486
330.63,8.07999992370605
330.64,-5.77000045776367
330.65,-20.6500015258789
330.66,-26.7400016784668
330.67,-29.1500015258789
330.68,-31.5000019073486
330.69,-26.4900016784668
330.7,-18.7600002288818
330.71,-6.75000047683716
330.72,-7.4200005531311
330.729,0.170000001788139
330.739,14.0300006866455
330.749,21.0300006866455
330.759,7.35000038146973
330.769,2.73000001907349
330.779,-0.280000001192093
330.789,-17.2900009155273
330.799,-21.4500007629395
330.809,-12.9100008010864
330.819,-10.2500009536743
330.829,-14.1400003433228
330.839,-12.5300006866455
330.849,-13.5800008773804
330.859,-20.0200004577637
330.869,-24.8500003814697
330.879,-24.3600006103516
330.889,-16.060001373291
330.899,-19.3500003814697
330.909,-15.2600011825562
330.919,-10.5000009536743
330.924,1.29000008106232
330.934,10.3900003433228
330.944,18.7200012207031
330.954,12.2500009536743
330.964,12.6300010681152
330.974,17.3600006103516
330.984,15.0800008773804
330.994,1.78000009059906
331.004,-7.73000049591064
331.014,-14.5200004577637
331.024,-17.6000003814697
331.034,-19.4200000762939
331.044,-16.7600002288818
331.054,-22.7500019073486
331.064,-28.310001373291
331.074,-23.0300006866455
331.081,-14.7700004577637
331.091,-18.480001449585
331.101,-18.3700008392334
331.111,-8.15000057220459
331.121,-4.58000040054321
331.131,0.100000001490116
331.141,12.7700004577637
331.151,19.7400016784668
331.161,14.9400005340576
331.171,14.0300006866455
331.181,23.4100017547607
331.191,20.4700012207031
331.201,20.7200012207031
331.211,26.9100017547607
331.221,18.5800018310547
331.231,16.6200008392334
331.241,13.7500009536743
331.251,2.66000008583069
331.261,-1.6800000667572
331.271,-2.59000015258789
331.28,-1.22000002861023
331.29,-1.12000000476837
331.3,-20.0500011444092
331.31,-33.560001373291
331.32,-46.8300018310547
331.33,-62.4000015258789
331.34,-49.4500007629395
331.35,-55.7200012207031
331.36,-45.6400032043457
331.37,-33.1800003051758
331.38,15.5000009536743
331.39,33.9800033569336
331.4,40.5300025939941
331.41,53.9700012207031
331.42,52.6000022888184
331.43,51.2700042724609
331.44,57.9900016784668
331.45,21.5200004577637
331.46,-6.37000036239624
331.47,-12.7700004577637
331.475,-85.2600021362305
331.485,-74.0600051879883
331.495,-64.3300018310547
331.505,-60.2700042724609
331.515,-37.2700004577637
331.525,3.88000011444092
331.535,13.5400009155273
331.545,36.9600028991699
331.555,63.4500045776367
331.565,61.9100036621094
331.575,60.7200012207031
331.585,100.130004882812
331.595,60.0900039672852
331.605,6.79000043869019
331.615,16.5200004577637
331.625,14.1400003433228
331.632,-0.350000023841858
331.642,-10.7400007247925
331.652,-29.9600009918213
331.662,-65.2000045776367
331.672,-52.6000022888184
331.682,-35
331.692,-60.1600036621094
331.702,-81.0900039672852
331.712,-64.7100067138672
331.722,-43.6100006103516
331.732,-37.9000015258789
331.742,-9.55000019073486
331.752,9.52000045776367
331.762,23.8300018310547
331.772,74.1300048828125
331.782,93.620002746582
331.792,87.5700073242188
331.802,98.2800064086914
331.812,90.120002746582
331.822,70.2100067138672
331.831,63.0700035095215
331.841,47.0000038146973
331.851,9.38000011444092
331.861,-21.6300010681152
331.871,-34.120002746582
331.881,-57.8900032043457
331.891,-73.4300003051758
331.901,-55.3300018310547
331.911,-49.1400032043457
331.921,-48.0900039672852
331.931,-31.4600009918213
331.941,-28.980001449585
331.951,-25.0900020599365
331.961,-21.560001373291
331.971,-27.4400005340576
331.981,-58.2400016784668
331.991,-84.870002746582
332.001,-101.110008239746
332.011,-132.440002441406
332.021,-152.25
332.03,-146.160003662109
332.04,-130.650009155273
332.05,-98.9100036621094
332.06,-35.2100028991699
332.07,13.0900001525879
332.08,49.6300010681152
332.09,88.9300079345703
332.1,113.850006103516
332.11,120.500007629395
