Time,GyroX
339.043,-19.560001373291
339.053,-20.7900009155273
339.063,23.2700004577637
339.073,22.5700016021729
339.083,29.4700012207031
339.093,20.7900009155273
339.103,-10.9500007629395
339.113,13.8900003433228
339.123,26.980001449585
339.132,-6.26000022888184
339.142,7.70000028610229
339.152,6.40000009536743
339.162,-5.91000032424927
339.172,17.1100006103516
339.182,11.5100002288818
339.192,-2.76000022888184
339.202,-12.2800006866455
339.212,-14.5200004577637
339.222,17.4300003051758
339.232,18.5800018310547
339.242,1.47000002861023
339.252,15.7800006866455
339.262,4.72000026702881
339.272,30.5900020599365
339.282,14.8400011062622
339.292,-2.31000018119812
339.302,53.930004119873
339.312,32.4400024414062
339.322,30.1000022888184
339.331,22.8200016021729
339.341,-21.4500007629395
339.351,9.34000015258789
339.361,27.3700008392334
339.371,4.09000015258789
339.381,2.24000000953674
339.391,-11.8600006103516
339.401,-22.5000019073486
339.411,15.2900009155273
339.421,26.7400016784668
339.431,23.1300010681152
339.441,-13.0500001907349
339.451,-52.7400016784668
339.461,-3.46000027656555
339.471,-1.26000010967255
339.481,-15.1500005722046
339.491,-20.230001449585
339.501,-21.8700008392334
339.511,36.6400032043457
339.521,29.2900009155273
339.529,-6.37000036239624
339.539,-12.5300006866455
339.549,-0.450000017881393
339.559,38.2200012207031
339.569,65.9400024414062
339.579,17.9200000762939
339.589,-15.4700002670288
339.599,-9.45000076293945
339.609,-2.83000016212463
339.619,39.9000015258789
339.629,45.1800003051758
339.639,26.0700016021729
339.649,23.7600002288818
339.659,0.0700000002980232
339.669,24.1500015258789
339.679,12.2500009536743
339.689,-23.4500007629395
339.699,30.9400005340576
339.709,47.8800010681152
339.719,14.0700006484985
339.723,27.4700012207031
339.733,27.0500011444092
339.743,27.8900012969971
339.753,4.69000005722046
339.763,2.55000019073486
339.773,-30.310001373291
339.783,-51.4100036621094
339.793,-49.1400032043457
339.803,-61.6700019836426
339.813,-34.5400009155273
339.823,4.62000036239624
339.833,3.15000009536743
339.843,48.1600036621094
339.853,22.4300003051758
339.863,15.6400003433228
339.873,66.8100051879883
339.882,65.7600021362305
339.892,75.8100051879883
339.902,71.0100021362305
339.912,-1.96000003814697
339.922,15.5700006484985
339.932,1.22000002861023
339.942,18.6900005340576
339.952,9.38000011444092
339.962,-19.0700016021729
339.972,11.4800004959106
339.982,37.3800010681152
339.992,24.5300006866455
340.002,9.3100004196167
340.012,14.8700008392334
340.022,1.71000003814697
340.032,15.7800006866455
340.042,5.5600004196167
340.052,-6.09000015258789
340.062,0.0300000011920929
340.072,4.44000005722046
340.08,24.7800006866455
340.09,43.0100021362305
340.1,59.5000038146973
340.11,65.0300064086914
340.12,79.6900024414062
340.13,77.140007019043
340.14,49.1000022888184
340.15,50.4000015258789
340.16,18.6900005340576
340.17,-49.9800033569336
340.18,-46.9700012207031
340.19,-50.2200012207031
340.2,-26.4600009918213
340.21,-11.6500005722046
340.22,-1.50000011920929
340.23,5.32000017166138
340.24,44.1000022888184
340.25,64.9900054931641
340.26,73.6700057983398
340.27,55.3000030517578
340.279,27.6500015258789
340.289,39.8300018310547
340.299,13.3700008392334
340.309,-10.6700000762939
340.319,-19.4900016784668
340.329,-40.1100006103516
340.339,-15.7800006866455
340.349,3.4300000667572
340.359,29.2200012207031
340.369,27.6800022125244
340.379,30.730001449585
340.389,21.9100017547607
340.399,31.9900016784668
340.409,1.05000007152557
340.419,-2.59000015258789
340.429,4.20000028610229
340.439,1.99000012874603
340.449,34.7900009155273
340.459,44.8000030517578
340.469,59.810001373291
340.473,64.75
340.483,60.9000015258789
340.493,24.4600009918213
340.503,7.4200005531311
340.513,5.70000028610229
340.523,-29.6800022125244
340.533,-38.4600028991699
340.543,-49.4900016784668
340.553,-48.680004119873
340.563,-46.0200004577637
340.573,-25.2700004577637
340.583,-30.1000022888184
340.593,-1.40000009536743
340.603,20.1900005340576
340.613,27.4700012207031
340.623,44.6900024414062
340.632,24.3200016021729
340.642,36.0500030517578
340.652,40.560001373291
340.662,46.930004119873
340.672,46.4400024414062
340.682,55.5800018310547
340.692,52.5000038146973
340.702,68.7000045776367
340.712,51.4500007629395
340.722,52.2200012207031
340.732,39.9300003051758
340.742,9.8700008392334
340.752,-12.9800004959106
340.762,-53.7600021362305
340.772,-101.990005493164
340.782,-83.8600006103516
340.792,-108.530006408691
340.802,-106.120002746582
340.812,-86.3100051879883
340.822,-65.9000015258789
340.83,-28.1400012969971
340.84,-8.36000061035156
340.85,20.0200004577637
340.86,61.8400039672852
340.87,98.1000061035156
340.88,128.310012817383
340.89,151.410003662109
340.9,155.960006713867
340.91,160.370010375977
340.92,173.250015258789
340.93,164.290008544922
340.94,122.530006408691
340.95,105.140007019043
340.96,69.75
340.97,19.2800006866455
340.98,-3.15000009536743
340.99,-67.2700042724609
341,-95.8300018310547
341.01,-95.370002746582
341.02,-115.360008239746
341.029,-118.190002441406
341.039,-123.790008544922
341.049,-104.650001525879
341.059,-98.1000061035156
341.069,-65.3800048828125
341.079,-40.2800025939941
341.089,-0.980000019073486
341.099,48.7500038146973
341.109,94.1800079345703
341.119,133.870010375977
341.129,150.990005493164
341.139,160.93000793457
341.149,154.520004272461
341.159,110.980003356934
341.169,87.8100051879883
341.179,43.4700012207031
341.189,-21.4500007629395
341.199,-59.7400016784668
341.209,-105.000007629395
341.219,-124.040008544922
341.223,105.910003662109
341.233,142.690002441406
341.243,169.990005493164
341.253,154.730010986328
341.263,128.130004882812
341.273,46.6900024414062
341.283,-0.910000026226044
341.293,-14.4500007629395
341.303,-41.1900024414062
341.313,-34.0200004577637
341.323,-66.6700057983398
341.333,-87.5700073242188
341.343,-64.6100006103516
341.353,-48.9600028991699
341.363,-13.0500001907349
341.373,29.1900005340576
341.382,33.1400032043457
341.392,40.4900016784668
341.402,63.870002746582
341.412,54.8400039672852
341.422,47.1400032043457
341.432,21.0300006866455
341.442,-17.4300003051758
341.452,-9.34000015258789
341.462,-12.3200006484985
341.472,-8.75
341.482,-12.9800004959106
341.492,-27.4700012207031
341.502,-27.5800018310547
341.512,-19.4900016784668
341.522,-13.8900003433228
341.532,14.3100004196167
341.542,67.8300018310547
341.552,136.18000793457
341.562,204.890014648438
341.572,225.500015258789
341.58,212.310012817383
341.59,186.690002441406
341.6,151.480010986328
341.61,116.270004272461
341.62,65.7600021362305
341.63,-2.83000016212463
341.64,-47.7000007629395
341.65,-24.7800006866455
341.66,-30.1000022888184
341.67,-19.810001373291
341.68,-3.88000011444092
341.69,5.35000038146973
341.7,19.560001373291
341.71,-5.32000017166138
341.72,-53.7200012207031
341.73,-65.8300018310547
341.74,-42.3800010681152
341.75,-36.6100006103516
341.76,-70.8400039672852
341.77,-89.1100006103516
341.779,-81.3400039672852
341.789,-52.4600028991699
341.799,33.7400016784668
341.809,135.380004882812
341.819,173.630004882812
341.829,185.950012207031
341.839,124.460006713867
341.849,121.060005187988
341.859,139.650009155273
341.869,172.93000793457
341.879,167.330001831055
341.889,143.290008544922
341.899,85.4300003051758
341.909,53.6500015258789
341.919,-35.870002746582
341.929,-162.500015258789
341.939,-297.220001220703
341.949,-453.740020751953
341.959,-508.620025634766
341.969,-480.480010986328
341.973,28.2100009918213
341.983,179.620010375977
341.993,318.920013427734
342.003,348.070007324219
342.013,288.640014648438
342.023,154.310012817383
342.033,73.7100067138672
342.043,45.0800018310547
342.053,76.4000015258789
342.063,55.930004119873
342.073,16.060001373291
342.083,10.9500007629395
342.093,26.4600009918213
342.103,59.6700019836426
342.113,109.790008544922
342.123,93.3100051879883
342.132,51.8300018310547
342.142,13.7500009536743
342.152,-8.36000061035156
342.162,-23.480001449585
342.172,-69.0200042724609
342.182,-185.220001220703
342.192,-204.260009765625
342.202,-152.390014648438
342.212,-98.9100036621094
342.222,-15.5400009155273
342.232,95.4100036621094
342.242,173.740005493164
342.252,276.180023193359
342.262,339.990020751953
342.272,386.750030517578
342.282,372.820007324219
342.292,353.430023193359
342.302,319.440002441406
342.312,226.730010986328
342.322,143.43000793457
342.33,112.490005493164
342.34,101.150001525879
342.35,88.5100021362305
342.36,101.950004577637
342.37,74.6900024414062
342.38,41.2300033569336
342.39,44.4100036621094
342.4,-10.0800008773804
342.41,-86.8300018310547
342.42,-141.470001220703
342.43,-180.280014038086
342.44,-196.940002441406
342.45,-204.640014648438
342.46,-235.020004272461
342.47,-220.250015258789
342.48,-177.940002441406
342.49,-139.820007324219
342.5,-103.770004272461
342.51,-66.9900054931641
342.52,-18.7600002288818
342.529,29.5700016021729
342.539,77.2400054931641
342.549,109.970008850098
342.559,127.92000579834
342.569,147.170013427734
342.579,173.950012207031
342.589,186.130004882812
342.599,167.580001831055
342.609,140.560012817383
342.619,116.620002746582
342.629,59.430004119873
342.639,-4.90000009536743
342.649,-50.2900009155273
342.659,-68.1800003051758
342.669,-25.7600021362305
342.679,16.310001373291
342.689,29.5400009155273
342.699,79.3400039672852
342.709,86.1300048828125
342.719,97.4700012207031
342.723,-285.950012207031
342.733,-340.130004882812
342.743,-340.130004882812
342.753,-309.920013427734
342.763,-245.59001159668
342.773,-162.080001831055
342.783,-35.2100028991699
342.793,17.5300006866455
342.803,88.5500030517578
342.813,175.280014038086
342.823,228.830017089844
342.833,258.720001220703
342.843,276.740020751953
342.853,233.620010375977
342.863,194.770004272461
342.873,157.460006713867
342.882,94.390007019043
342.892,33.560001373291
342.902,-31.5700016021729
342.912,-32.3400001525879
342.922,-30.2000007629395
342.932,12.2800006866455
342.942,67.0900039672852
342.952,105.210006713867
342.962,125.230003356934
342.972,142.100006103516
342.982,112.840003967285
342.992,89.8100051879883
343.002,50.5000038146973
343.012,-18.9000015258789
343.022,-75.4600067138672
343.032,-108.710006713867
343.042,-111.51000213623
343.052,-111.400001525879
343.062,-66.0100021362305
343.072,-34.3300018310547
343.08,-24.7100009918213
343.09,30.4500007629395
343.1,70.7300033569336
343.11,81.6900024414062
343.12,93.0600051879883
343.13,81.370002746582
343.14,41.4400024414062
343.15,-2.10000014305115
343.16,-56.2800025939941
343.17,-98.7000045776367
343.18,-128.830001831055
343.19,-134.290008544922
343.2,-121.76000213623
343.21,-102.410003662109
343.22,-42.7300033569336
343.23,7.80000019073486
343.24,72.8300018310547
343.25,132.120010375977
343.26,162.010009765625
343.27,154.490005493164
343.279,214.970016479492
343.289,196.450012207031
343.299,106.150001525879
343.309,46.2000007629395
343.319,3.60000014305115
343.329,-66.8100051879883
343.339,-35.9099998474121
343.349,-61.9100036621094
343.359,-141.75
343.369,-101.360008239746
343.379,-85.3600006103516
343.389,-107.830001831055
343.399,-29.7500019073486
343.409,12.2100009918213
343.419,38.3600006103516
343.429,112.140007019043
343.439,100.030006408691
343.449,9.10000038146973
343.459,40.2100028991699
343.469,21.8400001525879
343.473,84.3500061035156
343.483,72.5900039672852
343.493,101.110008239746
343.503,49.2100028991699
343.513,21.0300006866455
343.523,4.65000009536743
343.533,-27.8900012969971
343.543,-25.2000007629395
343.553,-77.5600051879883
343.563,-47.4900016784668
343.573,-22.8500003814697
343.583,-1.50000011920929
343.593,-9.8700008392334
343.603,-29.2900009155273
343.613,-22.7100009918213
343.623,-20.0900001525879
343.632,-12.4600009918213
343.642,4.69000005722046
343.652,-25.3000011444092
343.662,-56.0000038146973
343.672,-13.3000001907349
343.682,40.6300010681152
343.692,19.0400009155273
343.702,-17.2200012207031
343.712,-9.6200008392334
343.722,15.2900009155273
343.732,52.5300025939941
343.742,30.2000007629395
343.752,15.1200008392334
343.762,19.4900016784668
343.772,37.310001373291
343.782,52.6400032043457
343.792,25.1600017547607
343.802,-13.6500005722046
343.812,18.6900005340576
343.822,30.480001449585
343.83,42.9400024414062
343.84,52.180004119873
343.85,-2.83000016212463
343.86,-13.1900005340576
343.87,39.1300010681152
343.88,22.4700012207031
343.89,13.7500009536743
343.9,-21.2800006866455
343.91,-73.7400054931641
343.92,-35.870002746582
343.93,7.98000049591064
343.94,-9.73000049591064
343.95,-20.7900009155273
343.96,-0.770000040531158
343.97,-11.2000007629395
343.98,9.97000026702881
343.99,54.9100036621094
344,50.8900032043457
344.01,2.24000000953674
344.02,-9.34000015258789
344.029,5.91000032424927
344.039,24.6400012969971
344.049,43.1900024414062
344.059,6.09000015258789
344.069,-12.8100004196167
344.079,29.6400012969971
344.089,29.4700012207031
344.099,-3.74000024795532
344.109,11.5500001907349
344.119,9.17000007629395
344.129,-6.47000026702881
344.139,-26.3200016021729
344.149,-28.730001449585
344.159,24.2900009155273
344.169,40.4200019836426
344.179,-16.5500011444092
344.189,-3.04000020027161
344.199,15.6100006103516
344.209,19.6700000762939
344.219,12.3200006484985
344.223,-1.6100001335144
344.233,-7.00000047683716
344.243,9.52000045776367
344.253,21.7700004577637
344.263,-20.8900012969971
344.273,7.98000049591064
344.283,29.2600021362305
344.293,7.07000017166138
344.303,12.2500009536743
344.313,2.34000015258789
344.323,-7.94000053405762
344.333,16.8700008392334
344.343,3.78000020980835
344.353,-2.66000008583069
344.363,17.810001373291
344.373,17.5700016021729
344.381,23.1000003814697
344.391,45.3600006103516
344.401,31.0100021362305
344.411,-2.20000004768372
344.421,-8.99000072479248
344.431,-1.29000008106232
344.441,30.9400005340576
344.451,4.01999998092651
344.461,-1.78000009059906
344.471,3.29000020027161
344.481,4.72000026702881
344.491,7.5600004196167
344.501,-12.9500007629395
344.511,6.58000040054321
344.521,6.54000043869019
344.531,-2.45000004768372
344.541,24.2900009155273
344.551,27.4000015258789
344.561,32.2000007629395
344.571,20.4400005340576
344.58,20.3000011444092
344.59,-9.6200008392334
344.6,-0.700000047683716
344.61,-25.1600017547607
344.62,-14.2100009918213
344.63,17.7100009918213
344.64,23.480001449585
344.65,49.7700004577637
344.66,85.7800064086914
344.67,70.3800048828125
344.68,74.1600036621094
344.69,74.620002746582
344.7,39.2300033569336
344.71,29.1900005340576
344.72,-22.2600002288818
344.73,-18.4100017547607
344.74,-5.60000038146973
344.75,-1.26000010967255
344.76,14.1000003814697
344.77,6.79000043869019
344.779,7.00000047683716
344.789,5.35000038146973
344.799,-12.7400007247925
344.809,5.70000028610229
344.819,2.52000021934509
344.829,-6.96000051498413
344.839,21.4200000762939
344.849,51.6600036621094
344.859,74.370002746582
344.869,89.0000076293945
344.879,79.5500030517578
344.889,75.8100051879883
344.899,66.6700057983398
344.909,42.4200019836426
344.919,18.2700004577637
344.929,-19.2800006866455
344.939,-51.9000015258789
344.949,-68.8400039672852
344.959,-66.3899993896484
344.969,-58.3800010681152
344.973,47.3200035095215
344.983,51.3800010681152
344.993,41.5100021362305
345.003,37.310001373291
345.013,15.5700006484985
345.023,24.1800003051758
345.033,15.2600011825562
345.043,27.7500019073486
345.053,27.2600021362305
345.063,49.2400016784668
345.073,41.8600006103516
345.083,52.2500038146973
345.093,45.6700019836426
345.103,20.5400009155273
345.113,20.7200012207031
345.123,-11.4100008010864
345.131,-18.3700008392334
345.141,-39.1600036621094
345.151,-41.0900001525879
345.161,-67.3400039672852
345.171,-34.7200012207031
345.181,-36.8500022888184
345.191,-3.01000022888184
345.201,7.52000045776367
345.211,7.28000020980835
345.221,28.6600017547607
345.231,55.3300018310547
345.241,63.9400024414062
345.251,79.870002746582
345.261,94.1100082397461
345.271,93.3100051879883
345.281,111.160003662109
345.291,99.5700073242188
345.301,69.4000015258789
345.311,39.7900009155273
345.321,-5.70000028610229
345.33,-15.7100009918213
345.34,-26.7400016784668
345.35,-40.6300010681152
345.36,-13.8600006103516
345.37,-7.21000051498413
345.38,3.29000020027161
345.39,5.95000028610229
345.4,19.2100009918213
345.41,1.54000008106232
345.42,-2.59000015258789
345.43,-10.8800001144409
345.44,24.4300003051758
345.45,26.1100006103516
345.46,31.3600006103516
345.47,44.9400024414062
345.48,28.8000011444092
345.49,39.3400001525879
345.5,40.9800033569336
345.51,-3.95000028610229
345.52,-0.520000040531158
345.529,-17.1100006103516
345.539,-38.8800010681152
345.549,-26.1400012969971
345.559,-48.120002746582
345.569,-54.3500022888184
345.579,-43.2600021362305
345.589,-60.0900039672852
345.599,-63.7300033569336
345.609,-57.6100044250488
345.619,-63.0000038146973
345.629,-56.2800025939941
345.639,-50.680004119873
345.649,-59.8800010681152
345.659,-60.620002746582
345.669,-60.0900039672852
345.679,-65.7300033569336
345.689,-59.3900032043457
345.699,-46.060001373291
345.709,-38.5300025939941
345.719,-39.5800018310547
345.723,-11.2000007629395
345.733,0.910000026226044
345.743,9.17000007629395
345.753,23.9000015258789
345.763,21.9100017547607
345.773,27.9600009918213
345.783,38.3200035095215
345.793,43.0100021362305
345.803,53.4800033569336
345.813,50.8200035095215
345.823,46.0200004577637
345.833,70.4900054931641
345.843,89.3500061035156
345.853,100.520004272461
345.863,125.300003051758
345.873,132.93000793457
345.881,130.230010986328
345.891,147.420013427734
345.901,143.040008544922
345.911,110.350006103516
345.921,53.9000015258789
345.931,-13.1600008010864
345.941,-84.4900054931641
345.951,-158.510009765625
345.961,-207.580017089844
345.971,-257.740020751953
345.981,-281.890014648438
345.991,-249.580017089844
346.001,-220.530014038086
346.011,-188.890014648438
346.021,-124.110008239746
346.031,-70.6600036621094
346.041,-32.6900024414062
346.051,9.38000011444092
346.061,34.3000030517578
346.071,42.8000030517578
346.08,69.890007019043
346.09,99.4700012207031
346.1,130.580001831055
346.11,175.730010986328
346.12,194.070007324219
346.13,197.920013427734
346.14,204.780014038086
346.15,193.790008544922
346.16,169.150009155273
346.17,141.780014038086
346.18,111.68000793457
346.19,90.370002746582
346.2,83.120002746582
346.21,57.4700012207031
346.22,42.8400001525879
346.23,25.1600017547607
346.24,7.35000038146973
346.25,5.8100004196167
346.26,-8.68000030517578
346.27,-34.120002746582
346.279,-37.4500007629395
346.289,-49.5900039672852
346.299,-91.0300064086914
346.309,-101.67000579834
346.319,-108.460006713867
346.329,-142.870010375977
346.339,-174.470001220703
346.349,-167.610000610352
346.359,-147.210006713867
346.369,-127.220008850098
346.379,-88.1600036621094
346.389,-48.680004119873
346.399,-8.89000034332275
346.409,35.2100028991699
346.419,85.6100006103516
346.429,124.320007324219
346.439,143.570007324219
346.449,176.890014648438
346.459,185.990005493164
346.469,195.190002441406
346.473,225.780014038086
346.483,181.93000793457
346.493,142.59001159668
346.503,158.900009155273
346.513,162.540008544922
346.523,171.460006713867
346.533,181.120010375977
346.543,174.190002441406
346.553,207.200012207031
346.563,237.020004272461
346.573,249.440017700195
346.583,237.860015869141
346.593,227.850006103516
346.603,239.290008544922
346.613,272.680023193359
346.623,265.510009765625
346.631,265.720001220703
346.641,284.02001953125
346.651,287.700012207031
346.661,274.680023193359
346.671,225.68000793457
346.681,175.000015258789
346.691,100.830001831055
346.701,32.4400024414062
346.711,-15.4300003051758
346.721,-55.2600021362305
346.731,-83.5800018310547
346.741,-98.140007019043
346.751,-106.360008239746
346.761,-125.470008850098
346.771,-141.780014038086
346.781,-161.000015258789
346.791,-156.520004272461
346.801,-144.860000610352
346.811,-149.410003662109
346.821,-151.510009765625
346.83,-129.25
346.84,-118.090003967285
346.85,-104.190002441406
346.86,-74.620002746582
346.87,-23.5200004577637
346.88,26.0000019073486
346.89,65.0300064086914
346.9,97.7500076293945
346.91,116.200004577637
346.92,105.030006408691
346.93,77.6300048828125
346.94,38.9900016784668
346.95,-5.07000017166138
346.96,-55.120002746582
346.97,-101.640007019043
346.98,-110.350006103516
346.99,-96.0700073242188
347,-76.1900024414062
347.01,-42.7000007629395
347.02,11.9300003051758
347.029,61.0400047302246
347.039,95.7600021362305
347.049,126.310005187988
347.059,170.730010986328
347.069,161.560012817383
347.079,142.130004882812
347.089,122.570007324219
347.099,102.270004272461
347.109,75.6000061035156
347.119,59.2900009155273
347.129,57.7500038146973
347.139,68.4900054931641
347.149,109.440002441406
347.159,154.770004272461
347.169,191.410003662109
347.179,234.390014648438
347.189,227.640014648438
347.199,178.640014648438
347.209,122.18000793457
347.219,52.9200019836426
347.223,-151.020004272461
347.233,-141.050003051758
347.243,-116.790008544922
347.253,-48.7200012207031
347.263,17.2200012207031
347.273,74.1600036621094
347.283,101.600006103516
347.293,101.600006103516
347.303,79.9700012207031
347.313,37.4800033569336
347.323,-27.230001449585
347.333,-85.4000015258789
347.343,-166.770004272461
347.353,-241.320007324219
347.363,-285.460021972656
347.373,-322.100006103516
347.381,-297.040008544922
347.391,-263.130004882812
347.401,-223.860015869141
347.411,-143.600006103516
347.421,-45.8500022888184
347.431,54.7400016784668
347.441,117.600006103516
347.451,156.730010986328
347.461,186.34001159668
347.471,191.620010375977
347.481,162.780014038086
347.491,153.790008544922
347.501,156.760009765625
347.511,164.110000610352
347.521,200.300003051758
347.531,230.580017089844
347.541,262.5
347.551,277.510009765625
347.561,262.779998779297
347.571,236.700012207031
347.58,175.490005493164
347.59,122.360008239746
347.6,80.8500061035156
347.61,50.2600021362305
347.62,15.7100009918213
347.63,17.8500003814697
347.64,37.6600036621094
347.65,75.6000061035156
347.66,87.1800079345703
347.67,65.0300064086914
347.68,53.620002746582
347.69,10.3900003433228
347.7,8.53999996185303
347.71,-60.4400024414062
347.72,-111.120002746582
347.73,-118.090003967285
347.74,-115.500007629395
347.75,-86.2000045776367
347.76,-75.1100006103516
347.77,-42.560001373291
347.779,15.1200008392334
347.789,68.8100051879883
347.799,93.9400024414062
347.809,82.5600051879883
347.819,46.0900039672852
347.829,22.7100009918213
347.839,10.710000038147
347.849,-41.4000015258789
347.859,-28.2400016784668
347.869,-29.4300022125244
347.879,2.06000018119812
347.889,34.75
347.899,54.8800010681152
347.909,48.6500015258789
347.919,60.7600021362305
347.929,44.3400039672852
347.939,20.5100002288818
347.949,0.420000016689301
347.959,-29.1900005340576
347.969,-63.310001373291
347.973,-110.560005187988
347.983,-101.360008239746
347.993,-92.8500061035156
348.003,-64.6800003051758
348.013,-29.0100021362305
348.023,27.8200016021729
348.033,69.0500030517578
348.043,98.9800033569336
348.053,107.310005187988
348.063,93.8300018310547
348.073,95.2000045776367
348.083,106.820007324219
348.093,99.6100082397461
348.103,112.070007324219
348.113,146.720001220703
348.123,186.410003662109
348.131,222.490005493164
348.141,263.650024414062
348.151,318.110015869141
348.161,325.670013427734
348.171,291.410003662109
348.181,245.170013427734
348.191,182.940002441406
348.201,102.650001525879
348.211,21.560001373291
348.221,-57.8500022888184
348.231,-94.0400009155273
348.241,-91.4900054931641
348.251,-108.740005493164
348.261,-104.750007629395
348.271,-60.0200042724609
348.281,-28.1400012969971
348.291,-1.26000010967255
348.301,22.9200019836426
348.311,3.60000014305115
348.321,-9.10000038146973
348.33,-21.310001373291
348.34,-54.3200035095215
348.35,-94.9200057983398
348.36,-134.010009765625
348.37,-176.570007324219
348.38,-158.020004272461
348.39,-131.84001159668
348.4,-108.250007629395
348.41,-94.8800048828125
348.42,-74.2700042724609
348.43,-47.2800025939941
348.44,-32.6500015258789
348.45,-32.370002746582
348.46,-54.180004119873
348.47,-75.25
348.48,-76.9600067138672
348.49,-48.4400024414062
348.5,-6.93000030517578
348.51,30.480001449585
348.52,55.680004119873
348.529,84.2400054931641
348.539,98.6600036621094
348.549,96.4200057983398
348.559,87.0800018310547
348.569,80.0100021362305
348.579,66.8100051879883
348.589,45.6000022888184
348.599,2.94000005722046
348.609,-32.2300033569336
348.619,-52.6700019836426
348.629,-64.5400009155273
348.639,-73.0100021362305
348.649,-57.2900009155273
348.659,-23.8300018310547
348.669,4.72000026702881
348.679,30.2700023651123
348.689,62.120002746582
348.699,97.0500030517578
348.709,109.340003967285
348.719,96.9100036621094
348.722,2.69000005722046
348.732,1.29000008106232
348.742,-17.7100009918213
348.752,-21.5900001525879
348.762,-14.2100009918213
348.772,17.9200000762939
348.782,44.4500007629395
348.792,63.0700035095215
348.802,101.780006408691
348.812,138.600006103516
348.822,173.530014038086
348.832,191.030014038086
348.842,199.850006103516
348.852,197.990005493164
348.862,202.790008544922
348.872,200.300003051758
348.881,187.910003662109
348.891,163.900009155273
348.901,148.220001220703
348.911,130.970001220703
348.921,114.590003967285
348.931,109.830001831055
348.941,101.18000793457
348.951,60.6900024414062
348.961,27.3300018310547
348.971,2.24000000953674
348.981,-22.8500003814697
348.991,-49.0300025939941
349.001,-85.0500030517578
349.011,-113.610008239746
349.021,-122.040008544922
349.031,-122.92000579834
349.041,-110.280006408691
349.051,-91.8000030517578
349.061,-77.8400039672852
349.071,-55.0500030517578
349.08,-28.5200004577637
349.09,-17.0100002288818
349.1,-28.5900020599365
349.11,-42.1400032043457
349.12,-34.0900001525879
349.13,-21.2800006866455
349.14,-16.730001449585
349.15,-31.8500022888184
349.16,-23.1300010681152
349.17,-16.4500007629395
349.18,-7.4200005531311
349.19,-8.26000022888184
349.2,-4.30000019073486
349.21,0.280000001192093
349.22,4.93000030517578
349.23,13.3000001907349
349.24,35.2100028991699
349.25,66.1500015258789
349.26,86.1000061035156
349.27,108.780006408691
349.274,149.870010375977
349.284,147.630004882812
349.294,140.280014038086
349.304,119.140007019043
349.314,110.530006408691
349.324,92.6800079345703
349.334,68.1100006103516
349.344,45.2500038146973
349.354,25.230001449585
349.364,8.15000057220459
349.374,-26.9100017547607
349.384,-20.3000011444092
349.394,-14.7700004577637
349.404,-22.6400012969971
349.414,-26.6000003814697
349.424,-10.710000038147
349.432,-22.8500003814697
349.442,-35.1700019836426
349.452,-48.6100006103516
349.462,-79.1700057983398
349.472,-80.0100021362305
349.482,-88.4100036621094
349.492,-62.7200012207031
349.502,-18.2000007629395
349.512,-5.25000047683716
349.522,-2.94000005722046
349.532,17.1100006103516
349.542,19
349.552,2.03000020980835
349.562,4.34000015258789
349.572,5.95000028610229
349.582,-0.350000023841858
349.592,-12.8100004196167
349.602,-20.7200012207031
349.612,-30.2000007629395
349.622,-30.2400016784668
349.631,-21.7700004577637
349.641,-4.79000043869019
349.651,14.5200004577637
349.661,28.1700019836426
349.671,40.8400001525879
349.681,77.870002746582
349.691,83.4700012207031
349.701,66.3899993896484
349.711,40.2100028991699
349.721,14.0000009536743
349.731,-14.9800004959106
349.741,-32.1599998474121
349.751,-7.73000049591064
349.761,22.6800003051758
349.771,63.7700042724609
349.781,106.820007324219
349.791,125.650009155273
349.801,87.7100067138672
349.811,55.1900024414062
349.821,73.6700057983398
349.83,65.8000030517578
349.84,-2.94000005722046
349.85,-65.1700057983398
349.86,-95.0600051879883
349.87,-87.9200057983398
349.88,-60.930004119873
349.89,-26.5300006866455
349.9,-6.89000034332275
349.91,29.3600006103516
349.92,78.640007019043
349.93,115.320007324219
349.94,127.470008850098
349.95,102.370002746582
349.96,76.2300033569336
349.97,62.370002746582
349.98,18.3700008392334
349.99,-16.1000003814697
350,-35.8400001525879
350.01,-42.0700035095215
350.02,-46.2000007629395
350.024,61.8400039672852
350.034,79.2000045776367
350.044,80.3200073242188
350.054,81.8600006103516
350.064,62.6100044250488
350.074,47.810001373291
350.084,48.0500030517578
350.094,44.8000030517578
350.104,23.3400020599365
350.114,4.8600001335144
350.124,-22.4300003051758
350.134,-54.3500022888184
350.144,-71.7800064086914
350.154,-77.2400054931641
350.164,-77.1700057983398
350.174,-73.6700057983398
350.182,-36.4700012207031
350.192,2.97000002861023
350.202,19.1100006103516
350.212,19.560001373291
350.222,40.9100036621094
350.232,59.1500015258789
350.242,50.4000015258789
350.252,41.5100021362305
350.262,12.5600004196167
350.272,-9.83000087738037
350.282,-3.39000010490417
350.292,8.85000038146973
350.302,-11.2000007629395
350.312,-23.9400005340576
350.322,-2.10000014305115
350.332,-6.89000034332275
350.342,-42.4200019836426
350.352,-48.7500038146973
350.362,-39.7200012207031
350.372,-45.0100021362305
350.381,-22.6100006103516
350.391,-3.81000018119812
350.401,-27.8900012969971
350.411,-21.4200000762939
350.421,29.3300018310547
350.431,10.6700000762939
350.441,2.38000011444092
350.451,17.8500003814697
350.461,-11.5100002288818
350.471,-7.94000053405762
350.481,18.480001449585
350.491,-5.70000028610229
350.501,-28.0700016021729
350.511,-8.57000064849854
350.521,-10.2200002670288
350.531,-39.9700012207031
350.541,-35.0700035095215
350.551,-27.6500015258789
350.561,-53.0200042724609
350.571,-43.8900032043457
350.58,-28.5200004577637
350.59,-42.1700019836426
350.6,-35.8400001525879
350.61,-8.68000030517578
350.62,-4.79000043869019
350.63,-2.31000018119812
350.64,19.4600009918213
350.65,16.6599998474121
350.66,11.9300003051758
350.67,36.2600021362305
350.68,38.6000022888184
350.69,21.730001449585
350.7,26.9100017547607
350.71,12.4900007247925
350.72,-8.75
350.73,10.8800001144409
350.74,20.0900001525879
350.75,13.2300004959106
350.76,19.1800003051758
350.77,6.51000022888184
350.774,-54.0700035095215
350.784,-42.2800025939941
350.794,-41.370002746582
350.804,-11.7900009155273
350.814,30.3400020599365
350.824,49.7300033569336
350.834,67.2300033569336
350.844,76.8600006103516
350.854,53.9700012207031
350.864,38.9500007629395
350.874,41.9300003051758
350.884,14.6300010681152
350.894,14.8000011444092
350.904,28.560001373291
350.914,7.28000020980835
350.924,-7.77000045776367
350.932,-16.3800010681152
350.942,-51.2000007629395
350.952,-72.9400024414062
350.962,-67.5500030517578
350.972,-89.7000045776367
350.982,-86.4100036621094
350.992,-44.2400016784668
351.002,-20.9600009918213
351.012,16.9400005340576
351.022,57.8900032043457
351.032,49.1400032043457
351.042,58.4500045776367
351.052,56.2400016784668
351.062,3.99000024795532
351.072,-33.8800010681152
351.082,-43.0100021362305
351.092,-70.5200042724609
351.102,-65.1000061035156
351.112,-20.0500011444092
351.122,5.95000028610229
351.131,34.370002746582
351.141,50.5400009155273
351.151,40.6000022888184
351.161,31.1100006103516
351.171,33.0699996948242
351.181,6.65000009536743
351.191,-7.87000036239624
351.201,-12.8100004196167
351.211,-21.2800006866455
351.221,-20.5800018310547
351.231,-10.5700006484985
351.241,-9.20000076293945
351.251,-13.7200002670288
351.261,-11.4400005340576
351.271,-23.6200008392334
351.281,-51.0300025939941
351.291,-65.3800048828125
351.301,-55.370002746582
351.311,-34.4000015258789
351.321,22.4000015258789
351.33,71.5699996948242
351.34,80.5300064086914
351.35,100.380004882812
351.36,95.620002746582
351.37,58.0300025939941
351.38,9.83000087738037
351.39,-57.0500030517578
351.4,-109.790008544922
351.41,-142.130004882812
351.42,-185.390014648438
351.43,-202.120010375977
351.44,-177.520004272461
351.45,-142.240005493164
351.46,-94.4600067138672
351.47,-50.8200035095215
351.48,-24.3600006103516
351.49,-21.4200000762939
351.5,-22.1500015258789
351.51,-25.3400020599365
351.52,-53.0200042724609
351.524,6.16000032424927
351.534,5.49000024795532
351.544,23.0300006866455
351.554,49.2800025939941
351.564,50.8500022888184
351.574,37.4100036621094
351.584,33.1400032043457
351.594,21.8000011444092
351.604,-4.65000009536743
351.614,-7.24000024795532
351.624,-7.59000015258789
351.634,-18.6200008392334
351.644,-14.2400007247925
351.654,-16.9400005340576
351.664,-28.0000019073486
351.674,-40.2100028991699
351.682,-44.8000030517578
351.692,-42.4500007629395
351.702,-33.2800025939941
351.712,-7.4200005531311
351.722,16.2700004577637
351.732,42.7700004577637
351.742,70.5600051879883
351.752,87.1800079345703
351.762,96.2500076293945
351.772,92.6800079345703
351.782,68.6700057983398
351.792,18.7600002288818
351.802,-25.4400005340576
351.812,-54.560001373291
351.822,-66.1100006103516
351.832,-65.4800033569336
351.842,-77.4500045776367
351.852,-83.3300018310547
351.862,-85.3600006103516
351.872,-91.4200057983398
351.881,-107.100006103516
351.891,-134.639999389648
351.901,-180.210006713867
351.911,-201.350006103516
351.921,-196.980010986328
351.931,-223.230010986328
351.941,-216.960006713867
351.951,-183.360015869141
351.961,-155.610000610352
351.971,-122.250007629395
351.981,-70.3500061035156
351.991,-22.1900005340576
352.001,-0.730000019073486
352.011,29.5700016021729
352.021,64.4700012207031
352.031,79.1700057983398
352.041,70.6600036621094
352.051,79.8300018310547
352.061,88.370002746582
352.071,67.6500015258789
352.08,52.0400009155273
352.09,32.7900009155273
352.1,18.8300018310547
352.11,-7.21000051498413
352.12,-9.90000057220459
352.13,4.16000032424927
352.14,16.8700008392334
352.15,38.8500022888184
352.16,74.7200012207031
352.17,100.480003356934
352.18,122.500007629395
352.19,143.570007324219
352.2,140.870010375977
352.21,126.450004577637
352.22,76.8600006103516
352.23,26.0400009155273
352.24,-0.0300000011920929
352.25,-20.9300003051758
352.26,-39.1600036621094
352.27,-44.870002746582
352.275,5.74000024795532
352.285,-9.52000045776367
352.295,-31.4300022125244
352.305,-48.0900039672852
352.315,-79.1700057983398
352.325,-101.810005187988
352.335,-103.000007629395
352.345,-58.7300033569336
352.355,-23.9400005340576
352.365,15.7500009536743
352.375,82.9800033569336
352.385,137.580001831055
352.395,187.350006103516
352.405,200.690002441406
352.415,184.800003051758
352.425,143.010009765625
352.432,84.2800064086914
352.442,25.2700004577637
352.452,-15.8500003814697
352.462,-69.8199996948242
352.472,-107.520004272461
352.482,-131.980010986328
352.492,-134.150009155273
352.502,-100.76000213623
352.512,-59.7100028991699
352.522,-27.5800018310547
352.532,16.5200004577637
352.542,56.4200019836426
352.552,68.5300064086914
352.562,71.7100067138672
352.572,76.370002746582
352.582,52.1100006103516
352.592,22.8500003814697
352.602,6.8600001335144
352.612,11.0600004196167
352.622,22.6400012969971
352.631,37.0300025939941
352.641,49.2100028991699
352.651,88.9300079345703
352.661,118.26000213623
352.671,113.360008239746
352.681,94.0100021362305
352.691,42.4900016784668
352.701,-38.1800003051758
352.711,-102.830001831055
352.721,-100.030006408691
352.731,-77.4900054931641
352.741,-70.7000045776367
352.751,-61.7000045776367
352.761,-43.4700012207031
352.771,-42.9400024414062
352.781,-32.0200004577637
352.791,-29.1200008392334
352.801,-33.2100028991699
352.811,-56.3800010681152
352.821,-54.6300010681152
352.83,-27.0900020599365
352.84,8.75
352.85,11.5800008773804
352.86,-4.01999998092651
352.87,-13.6500005722046
352.88,-10.9500007629395
352.89,-7.3100004196167
352.9,-38.3200035095215
352.91,-64.8199996948242
352.92,-94.0100021362305
352.93,-112.840003967285
352.94,-135.830001831055
352.95,-151.270004272461
352.96,-174.020004272461
352.97,-162.120010375977
352.98,-167.440002441406
352.99,-166.770004272461
353,-164.990005493164
353.01,-155.710006713867
353.02,-147.380004882812
353.023,252.210006713867
353.033,273.279998779297
353.043,226.450012207031
353.053,176.050003051758
353.063,94.5000076293945
353.073,-19.6300010681152
353.083,-127.710006713867
353.093,-213.250015258789
353.103,-242.480010986328
353.113,-255.220016479492
353.123,-274.050018310547
353.133,-269.600006103516
353.143,-242.160018920898
353.153,-168.240005493164
353.163,-96.7400054931641
353.173,-38.0800018310547
353.182,31.0400009155273
353.192,97.9600067138672
353.202,114.340003967285
353.212,113.610008239746
353.222,113.400009155273
353.232,76.5400009155273
353.242,61.2800025939941
353.252,78.120002746582
353.262,105.310005187988
353.272,132.370010375977
353.282,162.68000793457
353.292,159
353.302,127.360008239746
353.312,99.2600021362305
353.322,90.5100021362305
353.332,107.690002441406
353.342,99.4700012207031
353.352,81.4800033569336
353.362,44.1000022888184
353.372,-1.26000010967255
353.381,-34.120002746582
353.391,-54.3200035095215
353.401,-79.2700042724609
353.411,-95.2700042724609
353.421,-123.270004272461
353.431,-160.93000793457
353.441,-188.020004272461
353.451,-231.070007324219
353.461,-260.820007324219
353.471,-267.010009765625
353.481,-245.170013427734
353.491,-247.060012817383
353.501,-223.440017700195
353.511,-167.960006713867
353.521,-108.18000793457
353.531,-32.1300010681152
353.541,46.3400039672852
353.551,63.9100036621094
353.561,26.9500007629395
353.571,-7.1700005531311
353.579,-55.7500038146973
353.589,-126.770004272461
353.599,-185.110015869141
353.609,-206.150009155273
353.619,-174.540008544922
353.629,-98.8000030517578
353.639,-3.74000024795532
353.649,62.5100021362305
353.659,136.740005493164
353.669,202.300003051758
353.679,237.93000793457
353.689,263.300018310547
353.699,244.020004272461
353.709,184.800003051758
353.719,154.490005493164
353.729,118.650009155273
353.739,39.5500030517578
353.749,-25.230001449585
353.759,-37.2000007629395
353.769,-44.6900024414062
353.773,-43.4000015258789
353.783,-47.2800025939941
353.793,-62.8200035095215
353.803,-90.0500030517578
353.813,-90.4700012207031
353.823,-57.2200012207031
353.833,-43.9200019836426
353.843,-26.4600009918213
353.853,17.8500003814697
353.863,58.8000030517578
353.873,83.7500076293945
353.883,127.960006713867
353.893,157.640014648438
353.903,150.220001220703
353.913,121.450004577637
353.923,97.6800079345703
353.932,62.930004119873
353.942,13.6800003051758
353.952,-20.1200008392334
353.962,-28.0000019073486
353.972,-40.6000022888184
353.982,-48.4400024414062
353.992,-24.9500007629395
354.002,-8.26000022888184
354.012,-5.88000011444092
354.022,3.1800000667572
354.032,20.5100002288818
354.042,12.8100004196167
354.052,-0.350000023841858
354.062,9.59000015258789
354.072,8.89000034332275
354.082,-6.93000030517578
354.092,-12.5300006866455
354.102,-5.39000034332275
354.112,-17.8500003814697
354.122,-4.72000026702881
354.131,66.0100021362305
354.141,9.8700008392334
354.151,-127.570007324219
354.161,-118.750007629395
354.171,-13.6800003051758
354.181,15.1900005340576
354.191,30.8000011444092
354.201,50.1900024414062
354.211,-13.0500001907349
354.221,-115.570007324219
354.231,-89.6700057983398
354.241,-11.5800008773804
354.251,-26.3900012969971
354.261,29.2600021362305
354.271,41.120002746582
354.281,-60.0900039672852
354.291,5.5600004196167
354.301,50.9200019836426
354.311,44.4500007629395
354.321,31.9200019836426
354.329,88.7200012207031
354.339,73.1800003051758
354.349,50.4700012207031
354.359,78.6100006103516
354.369,20.9600009918213
354.379,-54.4200019836426
354.389,-90.0500030517578
354.399,-35.1400032043457
354.409,-22.7500019073486
354.419,-26.980001449585
354.429,40.2500038146973
354.439,-24.1800003051758
354.449,-49.0000038146973
354.459,0
354.469,99.5700073242188
354.479,138.84001159668
354.489,190.260009765625
354.499,174.120010375977
354.509,47.6000022888184
354.519,-46.3000030517578
354.523,-281.330017089844
354.533,-337.190002441406
354.543,-314.190002441406
354.553,-258.440002441406
354.563,-187.980010986328
354.573,-119.310005187988
354.583,-63.3500022888184
354.593,5.21000003814697
354.603,156.270004272461
354.613,293.820007324219
354.623,290.600006103516
354.633,233.240005493164
354.643,200.720016479492
354.653,175.910003662109
354.663,174.230010986328
354.673,165.410003662109
354.682,180.250015258789
354.692,141.540008544922
354.702,102.090003967285
354.712,93.2000045776367
354.722,82.0400009155273
354.732,44.3400039672852
354.742,10.7400007247925
354.752,-20.8600006103516
354.762,-15.9600009918213
354.772,8.32999992370605
354.782,15.4000005722046
354.792,-27.5800018310547
354.802,-55.0200042724609
354.812,-36.9900016784668
354.822,-17.7100009918213
354.832,-4.30000019073486
354.842,32.5100021362305
354.852,42.9400024414062
354.862,71.640007019043
354.872,106.470008850098
354.881,107.100006103516
354.891,90.120002746582
354.901,87.8500061035156
354.911,80.5700073242188
354.921,63.9100036621094
354.931,41.2600021362305
354.941,30.060001373291
354.951,15.5000009536743
354.961,7.14000034332275
354.971,6.6100001335144
354.981,-4.26999998092651
354.991,-14.3500003814697
355.001,-8.99000072479248
355.011,-7.94000053405762
355.021,-10.9200000762939
355.031,-5
355.041,5.1100001335144
355.051,8.40000057220459
355.061,7.24000024795532
355.071,11.7600002288818
355.079,7.84000015258789
355.089,4.76000022888184
355.099,13.5800008773804
355.109,11.0600004196167
355.119,1.92000007629395
355.129,8.57000064849854
355.139,10.7800006866455
355.149,-6.44000053405762
355.159,-5.49000024795532
355.169,-0.590000033378601
355.179,-4.23000001907349
355.189,-0.800000011920929
355.199,10.3900003433228
355.209,6.40000009536743
355.219,20.6500015258789
355.229,42.8000030517578
355.239,38.9500007629395
355.249,36.8500022888184
355.259,45.8500022888184
355.269,38.9200019836426
355.273,6.79000043869019
355.283,7.10000038146973
355.293,1.4300000667572
355.303,8.68000030517578
355.313,17.3600006103516
355.323,9.13000011444092
355.333,14.2400007247925
355.343,24.3200016021729
355.353,20.230001449585
355.363,23.8300018310547
355.373,28.8000011444092
355.383,24.8800010681152
355.393,26.560001373291
355.403,26.980001449585
355.413,21.7000007629395
355.423,21.6300010681152
355.432,14.0700006484985
355.442,3.3600001335144
355.452,-1.4300000667572
355.462,-23.730001449585
355.472,-31.4300022125244
355.482,-28.3500022888184
355.492,-27.3700008392334
355.502,-22.6100006103516
355.512,-15.5400009155273
355.522,-5.95000028610229
355.532,9.17000007629395
355.542,19.4200000762939
355.552,25.8600006103516
355.562,23.3400020599365
355.572,25.6500015258789
355.582,27.4400005340576
355.592,20.7200012207031
355.602,10.710000038147
355.612,6.72000026702881
355.622,-3.71000027656555
355.631,-2.31000018119812
355.641,-1.96000003814697
355.651,-3.15000009536743
355.661,-5.32000017166138
355.671,-5.42000007629395
355.681,-6.37000036239624
355.691,-3.71000027656555
355.701,-5.67000007629395
355.711,-9.45000076293945
355.721,-11.7600002288818
355.731,-15.9900007247925
355.741,-8.78000068664551
355.751,-8.92000007629395
355.761,2.62000012397766
355.771,13.3000001907349
355.781,15.1500005722046
355.791,19.6300010681152
355.801,22.0100002288818
355.811,10.8800001144409
355.821,19.6700000762939
355.829,21.310001373291
355.839,3.32000017166138
355.849,-6.96000051498413
355.859,-6.54000043869019
355.869,-12.2800006866455
355.879,-11.9300003051758
355.889,-3.46000027656555
355.899,-14.5600004196167
355.909,-14.3800010681152
355.919,-7.84000015258789
355.929,-11.3400001525879
355.939,-6.79000043869019
355.949,-0.980000019073486
355.959,-9.34000015258789
355.969,-3.81000018119812
355.979,2.24000000953674
355.989,-12.4200010299683
355.999,-11.9000005722046
356.009,-11.4100008010864
356.019,-26.3900012969971
356.023,4.09000015258789
356.033,-1.50000011920929
356.043,4.90000009536743
356.053,1.15000009536743
356.063,-7.45000028610229
356.073,0.280000001192093
356.083,-6.33000040054321
356.093,-23.6200008392334
356.103,-14.9400005340576
356.113,-18.060001373291
356.123,-24.5700016021729
356.133,-10.5000009536743
356.143,-10.3600006103516
356.153,-10.0400009155273
356.163,11.5500001907349
356.173,9.3100004196167
356.182,-0.170000001788139
356.192,17.810001373291
356.202,19.8800010681152
356.212,22.9900016784668
356.222,29.9600009918213
356.232,12.7400007247925
356.242,-0.800000011920929
356.252,-0.910000026226044
356.262,-20.4000015258789
356.272,-17.1800003051758
356.282,-2.69000005722046
356.292,-15.2200002670288
356.302,-16.1700000762939
356.312,-15.5700006484985
356.322,-30.3400020599365
356.332,-24.0400009155273
356.342,-7.21000051498413
356.352,1.19000005722046
356.362,18.7200012207031
356.372,33.5300025939941
356.381,37.5200004577637
356.391,47.9500007629395
356.401,44.8300018310547
356.411,29.9600009918213
356.421,25.0200004577637
356.431,5.8100004196167
356.441,-20.0500011444092
356.451,-34.0900001525879
356.461,-54.7000007629395
356.471,-47.4200019836426
356.481,-1.12000000476837
356.491,37.9700012207031
356.501,71.2900009155273
356.511,91.6300048828125
356.521,86.5200042724609
356.531,70.5600051879883
356.541,49.0000038146973
356.551,24.7100009918213
356.561,-5.5600004196167
356.571,-31.2200012207031
356.579,-39.8600006103516
356.589,-36.4000015258789
356.599,-24.8800010681152
356.609,-7.73000049591064
356.619,12.7400007247925
356.629,16.060001373291
356.639,17.9900016784668
356.649,22.0100002288818
356.659,20.1600017547607
356.669,9.6200008392334
356.679,7.14000034332275
356.689,9.20000076293945
356.699,26.6300010681152
356.709,56.6300010681152
356.719,80.7400054931641
356.729,112.100006103516
356.739,149.100006103516
356.749,158.620010375977
356.759,139.580001831055
356.769,128.380004882812
356.773,9.41000080108643
356.783,9.6200008392334
356.793,11.9700002670288
356.803,7.38000011444092
356.813,22.2200012207031
356.823,23.5900020599365
356.833,18.0900001525879
356.843,10.3200006484985
356.853,14.4900007247925
356.863,2.69000005722046
356.873,-2.83000016212463
356.883,1.26000010967255
356.893,5.70000028610229
356.903,16.9400005340576
356.913,31.810001373291
356.923,20.7200012207031
356.932,11.6500005722046
356.942,6.89000034332275
356.952,-6.47000026702881
356.962,-42.2400016784668
356.972,-73.7100067138672
356.982,-112.280006408691
356.992,-154.420013427734
357.002,-177.450012207031
357.012,-179.760009765625
357.022,-179.93000793457
357.032,-168.100006103516
357.042,-142.940002441406
357.052,-130.410003662109
357.062,-121.130004882812
357.072,-86.1000061035156
357.082,-51.5200042724609
357.092,-23.2400016784668
357.102,12.5300006866455
357.112,59.7400016784668
357.122,100.240005493164
357.131,127.290008544922
357.141,155.890014648438
357.151,165.480010986328
357.161,133.980010986328
357.171,93.1000061035156
357.181,65.1000061035156
357.191,10.3600006103516
357.201,-62.930004119873
357.211,-119.660003662109
357.221,-181.300003051758
357.231,-241.740005493164
357.241,-283.880004882812
357.251,-281.080017089844
357.261,-273.77001953125
357.271,-270.440002441406
357.281,-251.09001159668
357.291,-213.880004882812
357.301,-151.790008544922
357.311,-112.350006103516
357.321,-69.75
357.329,-41.4400024414062
357.339,-32.4800033569336
357.349,-18.3400001525879
357.359,-17.9500007629395
357.369,-24.1500015258789
357.379,-16.2000007629395
357.389,-0.980000019073486
357.399,41.9300003051758
357.409,70.6600036621094
357.419,83.6500015258789
357.429,107.76000213623
357.439,139.160003662109
357.449,144.510009765625
357.459,94.640007019043
357.469,54.5300025939941
357.479,33.3900032043457
357.489,-16.730001449585
357.499,-58.5500030517578
357.509,-72.6600036621094
357.519,-71.9600067138672
357.523,9.3100004196167
357.533,-15.2200002670288
357.543,-32.5500030517578
357.553,-45.3900032043457
357.563,-81.6500015258789
357.573,-125.090003967285
357.583,-144.93000793457
357.593,-149.170013427734
357.603,-137.650009155273
357.613,-121.060005187988
357.623,-70.9100036621094
357.633,-30.0300006866455
357.643,11.0600004196167
357.653,43.9600028991699
357.663,60.930004119873
357.673,48.930004119873
357.682,33.0699996948242
357.692,-2.41000008583069
357.702,-16.7600002288818
357.712,-37.9000015258789
357.722,-59.0400009155273
357.732,-61.0700035095215
357.742,-47.0000038146973
357.752,-27.5400009155273
357.762,-13.6100006103516
357.772,-12.3500003814697
357.782,-9.83000087738037
357.792,-14.1000003814697
357.802,-28.6600017547607
357.812,-36.2200012207031
357.822,-49.3500022888184
357.832,-42.7000007629395
357.842,-51.060001373291
357.852,-83.2600021362305
357.862,-111.300003051758
357.872,-120.92000579834
357.88,-131.25
357.89,-143.320007324219
357.9,-151.510009765625
357.91,-133.660003662109
357.92,-106.26000213623
357.93,-76.7900009155273
357.94,-64.3600006103516
357.95,-46.8600006103516
357.96,-23.6200008392334
357.97,-17.3600006103516
357.98,-32.7900009155273
357.99,-65.4100036621094
358,-79.5900039672852
358.01,-89.0000076293945
358.02,-91.870002746582
358.03,-106.26000213623
358.04,-126.870002746582
358.05,-115.250007629395
358.06,-82.140007019043
358.07,-44.9700012207031
358.079,-19.9500007629395
358.089,2.73000001907349
358.099,43.3600006103516
358.109,85.3600006103516
358.119,102.410003662109
358.129,112.730003356934
358.139,146.120010375977
358.149,185.390014648438
358.159,214.970016479492
358.169,238.630004882812
358.179,264.460021972656
358.189,269.320007324219
358.199,245.070007324219
358.209,233.900009155273
358.219,227.810012817383
358.229,217.000015258789
358.239,197.710006713867
358.249,152.910003662109
358.259,119.17000579834
358.269,78.8200073242188
358.273,-154.980010986328
358.283,-179.230010986328
358.293,-206.010009765625
358.303,-224.000015258789
358.313,-232.640014648438
358.323,-245.800018310547
358.333,-261.660003662109
358.343,-272.02001953125
358.353,-281.779998779297
358.363,-283.320007324219
358.373,-280.029998779297
358.383,-273.630004882812
358.393,-246.360015869141
358.403,-214.620010375977
358.413,-140.240005493164
358.423,-58.2400016784668
358.432,14.4900007247925
358.442,73.3199996948242
358.452,95.9000015258789
358.462,82.3500061035156
358.472,45.0100021362305
358.482,-2.03000020980835
358.492,-28.5900020599365
358.502,-39.3000030517578
358.512,-65.9400024414062
358.522,-93.3400039672852
358.532,-104.960006713867
358.542,-102.720001220703
358.552,-77.5900039672852
358.562,-40.1400032043457
358.572,-11.4800004959106
358.582,15.4000005722046
358.592,52.0800018310547
358.602,99.120002746582
358.612,133.240005493164
358.622,142.690002441406
358.63,132.860000610352
358.64,130.020004272461
358.65,147.030014038086
358.66,147.560012817383
358.67,110.350006103516
358.68,49.4900016784668
358.69,7.38000011444092
358.7,-22.1200008392334
358.71,-40.3200035095215
358.72,-44.2000007629395
358.73,-36.8500022888184
358.74,-14.6600008010864
358.75,12.3900003433228
358.76,90.1900024414062
358.77,163.310012817383
358.78,183.960006713867
358.79,189.870010375977
358.8,198.130004882812
358.81,189.240005493164
358.82,165.440002441406
358.829,112.770004272461
358.839,31.0100021362305
358.849,-39.4100036621094
358.859,-100.060005187988
358.869,-147.139999389648
358.879,-141.120010375977
358.889,-130.440002441406
358.899,-146.400009155273
358.909,-127.470008850098
358.919,-96.140007019043
358.929,-67.2700042724609
358.939,-47.1100006103516
358.949,-51.5900039672852
358.959,-72.8300018310547
358.969,-118.370002746582
358.979,-162.470001220703
358.989,-216.650009155273
358.999,-265.960021972656
359.009,-286.930023193359
359.019,-277.690002441406
359.023,10.6000003814697
359.033,65.8000030517578
359.043,86.7300033569336
359.053,78.8200073242188
359.063,49.7300033569336
359.073,6.37000036239624
359.083,-46.6900024414062
359.093,-92.9200057983398
359.103,-125.890007019043
359.113,-153.510009765625
359.123,-137.370010375977
359.133,-87.1100006103516
359.143,-39.6500015258789
359.153,-2.69000005722046
359.163,15.9900007247925
359.173,40.4600028991699
359.182,99.7100067138672
359.192,164.990005493164
359.202,207.790008544922
359.212,213.320007324219
359.222,226.660003662109
359.232,252.700012207031
359.242,272.720001220703
359.252,286.580017089844
359.262,277.550018310547
359.272,264.840026855469
359.282,241.740005493164
359.292,201.420013427734
359.302,147.560012817383
359.312,74.4400024414062
359.322,0.870000064373016
359.332,-57.5700035095215
359.342,-96.0000076293945
359.352,-104.860008239746
359.362,-112.450004577637
359.372,-116.060005187988
359.38,-110.560005187988
359.39,-116.720008850098
359.4,-142.830001831055
359.41,-169.120010375977
359.42,-199.150009155273
359.43,-234.360015869141
359.44,-257.25
359.45,-265.230010986328
359.46,-251.120010375977
359.47,-190.43000793457
359.48,-123.93000793457
359.49,-56.310001373291
359.5,-18.7600002288818
359.51,-5.74000024795532
359.52,5.74000024795532
359.53,16.1700000762939
359.54,24.7800006866455
359.55,21.9400005340576
359.56,12.2100009918213
359.57,12.9100008010864
359.579,12.0400009155273
359.589,40.3500022888184
359.599,73.7400054931641
359.609,84.7000045776367
359.619,109.650001525879
359.629,144.720001220703
359.639,170.970001220703
359.649,159.210006713867
359.659,108.570007324219
359.669,43.9600028991699
359.679,-20.1200008392334
359.689,-42.3500022888184
359.699,-64.7800064086914
359.709,-88.3400039672852
359.719,-113.400009155273
359.729,-124.630004882812
359.739,-97.2300033569336
359.749,-35.4200019836426
359.759,7.80000019073486
359.769,36.120002746582
359.773,34.8900032043457
359.783,-16.2700004577637
359.793,-54.9500007629395
359.803,-98.9400024414062
359.813,-126.840003967285
359.823,-154.170013427734
359.833,-178.500015258789
359.843,-163.270004272461
359.853,-133.100006103516
359.863,-98.5200042724609
359.873,-45.5000038146973
359.883,0.800000011920929
359.893,44.8000030517578
359.903,87.0100021362305
359.913,111.370002746582
359.923,106.610008239746
359.932,92.6800079345703
359.942,60.7600021362305
359.952,22.9600009918213
359.962,-3.39000010490417
359.972,-41.8600006103516
359.982,-78.4700012207031
359.992,-110.980003356934
360.002,-124.840003967285
360.012,-115.500007629395
360.022,-106.540008544922
360.032,-90.1600036621094
360.042,-75.8100051879883
360.052,-58.060001373291
360.062,-42.7000007629395
360.072,-44.2400016784668
360.082,-56.1700019836426
360.092,-72.7600021362305
360.102,-63.5900039672852
360.112,-59.3200035095215
360.122,-63.1000022888184
360.13,-74.9700012207031
360.14,-82.2100067138672
360.15,-77.0300064086914
360.16,-71.9900054931641
360.17,-61.9800033569336
360.18,-59.2200012207031
360.19,-31.7800006866455
360.2,11.6200008392334
360.21,41.370002746582
360.22,50.9900016784668
360.23,60.2300033569336
360.24,80.0800018310547
360.25,79.3100051879883
360.26,56.870002746582
360.27,20.4400005340576
360.28,-8.28999996185303
360.29,-11.5100002288818
360.3,-12.4200010299683
360.31,-25.9700012207031
360.32,-38.5300025939941
360.329,-24.6000003814697
360.339,-2.80000019073486
360.349,16.4099998474121
360.359,10.460000038147
360.369,5.67000007629395
360.379,18.4100017547607
360.389,6.6100001335144
360.399,-21.9400005340576
360.409,-45.5000038146973
360.419,-42.560001373291
360.429,-37.5200004577637
360.439,-22.3300018310547
360.449,-22.6100006103516
360.459,-14.7000007629395
360.469,17.7800006866455
360.479,34.8200035095215
360.489,36.6100006103516
360.499,30.7600021362305
360.509,37.2000007629395
360.519,34.370002746582
360.523,-20.230001449585
360.533,-32.8600006103516
360.543,-29.4000015258789
360.553,-18.7900009155273
360.563,-14.6600008010864
360.573,-9.97000026702881
360.583,-3.99000024795532
360.593,13.0200004577637
360.603,22.0800018310547
360.613,17.0400009155273
360.623,22.9600009918213
360.633,41.0200004577637
360.643,40.3200035095215
360.653,21.1000003814697
360.663,11.2000007629395
360.673,14.9100008010864
360.682,6.16000032424927
360.692,-15.4700002670288
360.702,-14.4500007629395
360.712,-16.1300010681152
360.722,-18.3700008392334
360.732,-31.7400016784668
360.742,-37.5500030517578
360.752,-28.7700004577637
360.762,-10.6700000762939
360.772,-8.75
360.782,6.65000009536743
360.792,19.3200016021729
360.802,27.3700008392334
360.812,7.70000028610229
360.822,8.01000022888184
360.832,18.7200012207031
360.842,17.7400016784668
360.852,-1.82000005245209
360.862,-12.4600009918213
360.872,-0.0300000011920929
360.88,12.9500007629395
360.89,-4.79000043869019
360.9,-9.17000007629395
360.91,0.630000054836273
360.92,7.07000017166138
360.93,-1.19000005722046
360.94,5.21000003814697
360.95,16.1000003814697
360.96,20.8600006103516
360.97,13.7200002670288
360.98,22.9600009918213
360.99,35.9800033569336
361,31.0800018310547
361.01,17.3900012969971
361.02,33.6300010681152
361.03,53.0200042724609
361.04,34.370002746582
361.05,13.4700002670288
361.06,23.6900005340576
361.07,33.6700019836426
361.079,12.0400009155273
361.089,-7.94000053405762
361.099,8.61000061035156
361.109,15.2900009155273
361.119,-10.3200006484985
361.129,-17.2200012207031
361.139,15.0500011444092
361.149,26.9100017547607
361.159,5
361.169,8.1200008392334
361.179,35.3500022888184
361.189,34.1599998474121
361.199,12.0400009155273
361.209,18.0900001525879
361.219,31.1500015258789
361.229,15.5700006484985
361.239,3.81000018119812
361.249,24.0100002288818
361.259,29.0500011444092
361.269,7.07000017166138
361.273,0.490000009536743
361.283,3.08000016212463
361.293,-20.1200008392334
361.303,-33.2800025939941
361.313,-11.3400001525879
361.323,-8.57000064849854
361.333,-22.1200008392334
361.343,-8.61000061035156
361.353,25.7200012207031
361.363,30.4500007629395
361.373,19.1800003051758
361.383,29.0100021362305
361.393,38.5
361.403,33.1400032043457
361.413,38.0800018310547
361.423,32.1599998474121
361.432,-25.3000011444092
361.442,-52.7400016784668
361.452,-17.9500007629395
361.462,-5.49000024795532
361.472,-18.1300010681152
361.482,-13.5800008773804
361.492,3.3600001335144
361.502,14.7000007629395
361.512,20.8600006103516
361.522,23.8000011444092
361.532,21.4500007629395
361.542,12.8800010681152
361.552,15.7500009536743
361.562,6.12000036239624
361.572,-13.3700008392334
361.582,-5.67000007629395
361.592,22.5000019073486
361.602,26.3500003814697
361.612,5.74000024795532
361.622,5.95000028610229
361.63,12.2100009918213
361.64,-7.07000017166138
361.65,-21.730001449585
361.66,-15.9600009918213
361.67,-21.9100017547607
361.68,-39.5100021362305
361.69,-35.7700004577637
361.7,-39.5100021362305
361.71,-56.7300033569336
361.72,-50.1900024414062
361.73,-26.6000003814697
361.74,-16.6200008392334
361.75,5.07000017166138
361.76,27.1200008392334
361.77,32.9700012207031
361.78,29.8900012969971
361.79,60.1600036621094
361.8,68.2100067138672
361.81,44.1300010681152
361.82,38.7100028991699
361.829,52.0800018310547
361.839,48.7900009155273
361.849,35.5900001525879
361.859,23.730001449585
361.869,10.5700006484985
361.879,-2.66000008583069
361.889,1.54000008106232
361.899,-0.140000000596046
361.909,-11.7900009155273
361.919,2.03000020980835
361.929,8.19000053405762
361.939,-3.25000023841858
361.949,-10.0400009155273
361.959,-20.6500015258789
361.969,-25.1600017547607
361.979,-20.2600002288818
361.989,-12.0700006484985
361.999,-6.72000026702881
362.009,2.10000014305115
362.019,12.7700004577637
362.023,29.3300018310547
362.033,29.2900009155273
362.043,33.7000007629395
362.053,23.2000007629395
362.063,17.2900009155273
362.073,20.7900009155273
362.083,20.4000015258789
362.093,12.2500009536743
362.103,14.3100004196167
362.113,19.0400009155273
362.123,22.6400012969971
362.133,38.1500015258789
362.143,40.1400032043457
362.153,32.9700012207031
362.163,37.4800033569336
362.173,53.2000007629395
362.181,53.4800033569336
362.191,64.6100006103516
362.201,70.4200057983398
362.211,58.0300025939941
362.221,69.6500015258789
362.231,79.6600036621094
362.241,73.7100067138672
362.251,70.2100067138672
362.261,62.7200012207031
362.271,66.3600006103516
362.281,87.2900009155273
362.291,109.270004272461
362.301,118.93000793457
362.311,135.620010375977
362.321,127.850006103516
362.331,87.7400054931641
362.341,47.7700004577637
362.351,14.9100008010864
362.361,-24.7100009918213
362.371,-35.1000022888184
362.38,-25.3700008392334
362.39,-30.7600021362305
362.4,-28.0000019073486
362.41,-15.4300003051758
362.42,-21.730001449585
362.43,-36.5
362.44,-49.6300010681152
362.45,-60.7900047302246
362.46,-45.3600006103516
362.47,-27.0900020599365
362.48,-30.4100017547607
362.49,-33.4200019836426
362.5,-28.6300010681152
362.51,-10.8100004196167
362.52,9.20000076293945
362.53,5.25000047683716
362.54,-22.5000019073486
362.55,-29.9200019836426
362.56,-41.6500015258789
362.57,-66.5300064086914
362.579,-84.5600051879883
362.589,-104.050003051758
362.599,-134.710006713867
362.609,-147.240005493164
362.619,-157.150009155273
362.629,-176.080001831055
362.639,-180.040008544922
362.649,-164.43000793457
362.659,-154.520004272461
362.669,-133.870010375977
362.679,-97.4400024414062
362.689,-76.5800018310547
362.699,-34.0500030517578
362.709,22.1500015258789
362.719,47.0400009155273
362.729,78.2900009155273
362.739,129.220001220703
362.749,157.460006713867
362.759,168.870010375977
362.769,203.280014038086
362.773,365.540008544922
362.783,364.070007324219
362.793,332.990020751953
362.803,263.930023193359
362.813,210.280014038086
362.823,160.050003051758
362.833,113.710006713867
362.843,94.0400009155273
362.853,104.51000213623
362.863,113.150009155273
362.873,111.120002746582
362.883,136.389999389648
362.893,138.950012207031
362.903,125.470008850098
362.913,107.480003356934
362.923,64.2600021362305
362.931,22.0500011444092
362.941,-4.93000030517578
362.951,-31.0800018310547
362.961,-46.0200004577637
362.971,-39.7900009155273
362.981,-12.3200006484985
362.991,-5.28000020980835
363.001,-4.97000026702881
363.011,17.0100002288818
363.021,31.9500007629395
363.031,16.480001449585
363.041,-10.6400003433228
363.051,-37.5900001525879
363.061,-59.430004119873
363.071,-60.930004119873
363.081,-51.8300018310547
363.091,-51.9400024414062
363.101,-46.1300010681152
363.111,-12.5600004196167
363.121,-0.910000026226044
363.13,-2.34000015258789
363.14,-13.5100002288818
363.15,-24.1500015258789
363.16,-39.3000030517578
363.17,-57.4000015258789
363.18,-66.1800003051758
363.19,-61.8400039672852
363.2,-74.4400024414062
363.21,-64.4000015258789
363.22,-49.5200004577637
363.23,-47.8400039672852
363.24,-46.5800018310547
363.25,-79.870002746582
363.26,-78.6100006103516
363.27,-83.0500030517578
363.28,-62.680004119873
363.29,-27.7500019073486
363.3,28.3800010681152
363.31,88.2700042724609
363.32,158.440002441406
363.329,221.200012207031
363.339,255.250015258789
363.349,268.130004882812
363.359,261.940002441406
363.369,243.560012817383
363.379,196.490005493164
363.389,133.660003662109
363.399,93.2000045776367
363.409,59.2500038146973
363.419,41.120002746582
363.429,17.4600009918213
363.439,10.3200006484985
363.449,11.9000005722046
363.459,14.8000011444092
363.469,3.08000016212463
363.479,-0.870000064373016
363.489,-38.25
363.499,-56.8400039672852
363.509,-66.0800018310547
363.519,-88.7900009155273
363.523,21.0700016021729
363.533,43.0800018310547
363.543,65.7600021362305
363.553,89.2100067138672
363.563,94.9200057983398
363.573,87.0800018310547
363.583,54.6300010681152
363.593,31.6700019836426
363.603,9.48000049591064
363.613,-2.10000014305115
363.623,-19.8800010681152
363.633,-33.4200019836426
363.643,-36.1500015258789
363.653,-3.78000020980835
363.663,64.1900024414062
363.673,135.380004882812
363.681,191.550003051758
363.691,231.030014038086
363.701,240.550018310547
363.711,218.570007324219
363.721,170.380004882812
363.731,86.1300048828125
363.741,-10.2500009536743
363.751,-106.990005493164
363.761,-185.850006103516
363.771,-214.370010375977
363.781,-207.970016479492
363.791,-183.150009155273
363.801,-127.43000793457
363.811,-93.1000061035156
363.821,-78.7800064086914
363.831,-64.4000015258789
363.841,-45.2500038146973
363.851,-67.9300003051758
363.861,-118.750007629395
363.871,-149.450012207031
363.88,-160.120010375977
363.89,-136.150009155273
363.9,-89.8100051879883
363.91,-7.03000020980835
363.92,67.2300033569336
363.93,106.26000213623
363.94,136.740005493164
363.95,176.850006103516
363.96,192.600006103516
363.97,154.240005493164
363.98,102.020004272461
363.99,44.5200004577637
364,20.0500011444092
364.01,20.5400009155273
364.02,44.4500007629395
364.03,68.2100067138672
364.04,95.3000030517578
364.05,147.490005493164
364.06,209.890014648438
364.07,227.990005493164
364.079,213.740005493164
364.089,207.020004272461
364.099,220.43000793457
364.109,227.43000793457
364.119,193.480010986328
364.129,151.440002441406
364.139,140.170013427734
364.149,128.940002441406
364.159,122.080009460449
364.169,94.5300064086914
364.179,37.1000022888184
364.189,-10.7800006866455
364.199,-32.7200012207031
364.209,-84.1000061035156
364.219,-170.690002441406
364.229,-229.390014648438
364.239,-231.240005493164
364.249,-243.980010986328
364.259,-247.690017700195
364.269,-230.260009765625
364.273,6.79000043869019
364.283,35.2800025939941
364.293,61.0400047302246
364.303,81.4400024414062
364.313,78.3600006103516
364.323,61.0700035095215
364.333,61.560001373291
364.343,76.6100006103516
364.353,88.8300018310547
364.363,88.3000030517578
364.373,81.3400039672852
364.383,65.5200042724609
364.393,45.8800010681152
364.403,0.590000033378601
364.413,-56.4900016784668
364.423,-99.5400009155273
364.431,-130.410003662109
364.441,-117.390007019043
364.451,-85.8500061035156
364.461,-30.6900005340576
364.471,20.4700012207031
364.481,54.9800033569336
364.491,59.7800025939941
364.501,53.3000030517578
364.511,75.8400039672852
364.521,113.780006408691
364.531,125.26000213623
364.541,138.740005493164
364.551,141.260009765625
364.561,124.320007324219
364.571,80.1800003051758
364.581,16.6599998474121
364.591,-85.4000015258789
364.601,-146.580001831055
364.611,-163.270004272461
364.621,-211.850006103516
364.63,-252.800018310547
364.64,-276.740020751953
364.65,-270.760009765625
364.66,-218.150009155273
364.67,-138.420013427734
364.68,-18.230001449585
364.69,94.9200057983398
364.7,183.850006103516
364.71,216.370010375977
364.72,258.790008544922
364.73,294.940002441406
364.74,301.590026855469
364.75,308.490020751953
364.76,315.52001953125
364.77,288.820007324219
364.78,250.880004882812
364.79,194.880004882812
364.8,150.920013427734
364.81,96.4900054931641
364.82,58.4800033569336
364.829,37.6600036621094
364.839,27.8200016021729
364.849,37.0300025939941
364.859,63.7700042724609
364.869,108.570007324219
364.879,134.5
364.889,153.470001220703
364.899,168.030014038086
364.909,162.400009155273
364.919,126.800003051758
364.929,82.4900054931641
364.939,1.6100001335144
364.949,-74.4400024414062
364.959,-146.960006713867
364.969,-182.030014038086
364.979,-221.370010375977
364.989,-234.950012207031
364.999,-207.300003051758
365.009,-152.980010986328
365.019,-90.6500015258789
365.023,132.580001831055
365.033,150.670013427734
365.043,121.620002746582
365.053,74.4800033569336
365.063,32.0200004577637
365.073,-3.53000020980835
365.083,-63.9800033569336
365.093,-111.650001525879
365.103,-151.440002441406
365.113,-209.820007324219
365.123,-253.010009765625
365.133,-229.910003662109
365.143,-190.500015258789
365.153,-143.43000793457
365.163,-62.7500038146973
365.173,27.4400005340576
365.181,106.890007019043
365.191,180.980010986328
365.201,243.630004882812
365.211,272.930023193359
365.221,255.220016479492
365.231,275.029998779297
365.241,212.520004272461
365.251,123.300003051758
365.261,48.8600006103516
365.271,-13.3000001907349
365.281,-80.0400009155273
365.291,-83.6500015258789
365.301,-80.9500045776367
365.311,-101.250007629395
365.321,-28.4500007629395
365.331,12.0400009155273
365.341,39.9000015258789
365.351,61.2800025939941
365.361,111.370002746582
365.371,133.84001159668
365.38,98.5900039672852
365.39,60.9700012207031
365.4,63.6300048828125
365.41,12.7000007629395
365.42,-14.4500007629395
365.43,3.88000011444092
365.44,16.060001373291
365.45,0.980000019073486
365.46,50.120002746582
365.47,7.28000020980835
365.48,-60.6500015258789
365.49,-45.1100006103516
365.5,-57.2600021362305
365.51,-81.370002746582
365.52,-59.4600028991699
365.53,-21.6300010681152
365.54,-24.1500015258789
365.55,-35.4900016784668
365.56,37.4100036621094
365.57,-5.07000017166138
365.579,-23.9000015258789
365.589,21.0300006866455
365.599,-16.1300010681152
365.609,-7.07000017166138
365.619,65.0600051879883
365.629,54.3900032043457
365.639,77.2800064086914
365.649,131.84001159668
365.659,116.970008850098
365.669,128.520004272461
365.679,160.93000793457
365.689,142.310012817383
365.699,66.3199996948242
365.709,16.4500007629395
365.719,0.980000019073486
365.729,-47.3500022888184
365.739,-52.810001373291
365.749,-46.5800018310547
365.759,-42.310001373291
365.769,-13.3300008773804
365.773,-22.4000015258789
365.783,-54.560001373291
365.793,-60.5500030517578
365.803,-65.4800033569336
365.813,-78.9200057983398
365.823,-66.0400009155273
365.833,-52.9200019836426
365.843,-48.5400009155273
365.853,-43.0800018310547
365.863,-28.310001373291
365.873,-38.7100028991699
365.883,-50.0100021362305
365.893,-23.2700004577637
365.903,5.98000049591064
365.913,10.5000009536743
365.923,32.7200012207031
365.931,62.6100044250488
365.941,66.0800018310547
365.951,81.0200042724609
365.961,76.0500030517578
365.971,35.0700035095215
365.981,35.1000022888184
365.991,46.8300018310547
366.001,34.5400009155273
366.011,20.8600006103516
366.021,8.89000034332275
366.031,-11.5500001907349
366.041,7.84000015258789
366.051,21.3800010681152
366.061,-9.13000011444092
366.071,-38.5
366.081,-29.7100009918213
366.091,-19.4600009918213
366.101,-16.730001449585
366.111,-6.8600001335144
366.121,-6.65000009536743
366.13,23.8700008392334
366.14,68.3199996948242
366.15,70.7000045776367
366.16,56.4200019836426
366.17,70.8400039672852
366.18,65.6600036621094
366.19,53.5500030517578
366.2,40.810001373291
366.21,12.9100008010864
366.22,-15.6800003051758
366.23,8.57000064849854
366.24,17.9500007629395
366.25,-2.45000004768372
366.26,-2.48000001907349
366.27,-8.99000072479248
366.28,-24.5300006866455
366.29,-23.3400020599365
366.3,-38.8800010681152
366.31,-67.4100036621094
366.32,-47.180004119873
366.324,43.7100028991699
366.334,65.5900039672852
366.344,78.2900009155273
366.354,58.5200042724609
366.364,59.5300025939941
366.374,49.7000007629395
366.384,4.90000009536743
366.394,-17.1800003051758
366.404,-18.0200004577637
366.414,-31.2500019073486
366.424,-23.8700008392334
366.434,-6.75000047683716
366.444,-14.7700004577637
366.454,0.940000057220459
366.464,25.2000007629395
366.474,8.32999992370605
366.482,16.9400005340576
366.492,31.9500007629395
366.502,19.7000007629395
366.512,21.9400005340576
366.522,33.7000007629395
366.532,32.6500015258789
366.542,48.8900032043457
366.552,62.4700012207031
366.562,49.0700035095215
366.572,27.3000011444092
366.582,6.05000019073486
366.592,-12.4900007247925
366.602,-36.0100021362305
366.612,-48.8200035095215
366.622,-53.9700012207031
366.632,-28.2100009918213
366.642,-8.26000022888184
366.652,-8.36000061035156
366.662,-9.8700008392334
366.672,-0.420000016689301
366.681,7.94000053405762
366.691,13.9600009918213
366.701,-1.57000005245209
366.711,-16.5500011444092
366.721,-1.47000002861023
366.731,-4.72000026702881
366.741,-29.2900009155273
366.751,-31.6000022888184
366.761,-34.9600028991699
366.771,-41.7900009155273
366.781,-27.8200016021729
366.791,-24.6400012969971
366.801,-21.2100009918213
366.811,6.93000030517578
366.821,11.4400005340576
366.831,20.4700012207031
366.841,36.8200035095215
366.851,25.1300010681152
366.861,13.8600006103516
366.871,23.480001449585
366.88,1.36000001430511
366.89,-18.5100002288818
366.9,-1.50000011920929
366.91,-23.5500011444092
366.92,-33.2800025939941
366.93,-15.5000009536743
366.94,-36.2200012207031
366.95,-62.4000015258789
366.96,-57.6400032043457
366.97,-73.0100021362305
366.98,-91.0700073242188
366.99,-70.6300048828125
367,-76.1600036621094
367.01,-94.6000061035156
367.02,-86.1000061035156
367.03,-81.3400039672852
367.04,-99.0800018310547
367.05,-111.090003967285
367.06,-112.800003051758
367.07,-128.870010375977
367.074,-197.330001831055
367.084,-160.820007324219
367.094,-127.890007019043
367.104,-99.2600021362305
367.114,-53.7900009155273
367.124,1.05000007152557
367.134,28.4900016784668
367.144,14.0300006866455
367.154,-3.71000027656555
367.164,-11.4100008010864
367.174,-3.32000017166138
367.184,-21.0000019073486
367.194,-26.3900012969971
367.204,-0.910000026226044
367.214,48.6500015258789
367.224,87.7100067138672
367.232,136.320007324219
367.242,207.300003051758
367.252,280.420013427734
367.262,322.030029296875
367.272,339.740020751953
367.282,380.590026855469
367.292,397.740020751953
367.302,382.900024414062
367.312,376.910003662109
367.322,372.500030517578
367.332,352.480010986328
367.342,353.740020751953
367.352,349.190002441406
367.362,310.380004882812
367.372,271.630004882812
367.382,248.640014648438
367.392,214.650009155273
367.402,149.100006103516
367.412,118.440002441406
367.422,89.0700073242188
367.431,50.0100021362305
367.441,20.1200008392334
367.451,-26.2500019073486
367.461,-71.6100006103516
367.471,-121.200004577637
367.481,-171.010009765625
367.491,-208.140014648438
367.501,-255.18000793457
367.511,-276.430023193359
367.521,-288.850006103516
367.531,-283.360015869141
367.541,-231.520004272461
367.551,-164.740005493164
367.561,-80.25
367.571,12.2800006866455
367.581,82.5600051879883
367.591,150.150009155273
367.601,218.960006713867
367.611,272.790008544922
367.621,314.610015869141
367.63,324.590026855469
367.64,300.890014648438
367.65,286.720001220703
367.66,257.490020751953
367.67,210.240005493164
367.68,143.710006713867
367.69,84.8400039672852
367.7,23.8000011444092
367.71,-30.5500011444092
367.72,-68.7700042724609
367.73,-119.980003356934
367.74,-162.010009765625
367.75,-177.870010375977
367.76,-159.25
367.77,-126.310005187988
367.78,-104.960006713867
367.79,-70.2400054931641
367.8,-4.83000040054321
367.81,59.180004119873
367.82,99.890007019043
367.824,181.93000793457
367.834,163.130004882812
367.844,148.470001220703
367.854,117.700004577637
367.864,101.530006408691
367.874,99.0500030517578
367.884,100.520004272461
367.894,107.590003967285
367.904,108.18000793457
367.914,125.300003051758
367.924,146.75
367.934,157.850006103516
367.944,151.720001220703
367.954,134.360000610352
367.964,130.690002441406
367.974,124.600006103516
367.982,119.910003662109
367.992,98.5200042724609
368.002,80.0400009155273
368.012,74.2700042724609
368.022,56.1400032043457
368.032,29.0500011444092
368.042,13.4700002670288
368.052,4.8600001335144
368.062,14.0000009536743
368.072,13.7900009155273
368.082,7.49000024795532
368.092,12.3500003814697
368.102,13.5100002288818
368.112,29.9200019836426
368.122,15.6100006103516
368.132,4.55000019073486
368.142,-1.4300000667572
368.152,-4.62000036239624
368.162,-1.64000010490417
368.172,-40.0400009155273
368.181,-75.5300064086914
368.191,-100.660003662109
368.201,-105.980003356934
368.211,-107.590003967285
368.221,-141.540008544922
368.231,-161.280014038086
368.241,-176.990005493164
368.251,-175.800003051758
368.261,-172.550003051758
368.271,-198.870010375977
368.281,-186.230010986328
368.291,-158.550003051758
368.301,-100.270004272461
368.311,-35.8000030517578
368.321,-1.75000011920929
368.331,37.4800033569336
368.341,77.5200042724609
368.351,98.9800033569336
368.361,105.450004577637
368.371,94.0100021362305
368.38,87.390007019043
368.39,80.1800003051758
368.4,81.7600021362305
368.41,78.75
368.42,65.9000015258789
368.43,66.1500015258789
368.44,107.620002746582
368.45,159.320007324219
368.46,200.580017089844
368.47,220.530014038086
368.48,214.830017089844
368.49,218.470016479492
368.5,214.720016479492
368.51,202.93000793457
368.52,177.130004882812
368.53,132.330001831055
368.54,115.01000213623
368.55,103.42000579834
368.56,100.870002746582
368.57,100.17000579834
368.574,77.2100067138672
368.584,74.6500015258789
368.594,71.5
368.604,77.7300033569336
368.614,79.4500045776367
368.624,92.8500061035156
368.634,91.6600036621094
368.644,68.2800064086914
368.654,62.7900047302246
368.664,47.9800033569336
368.674,39.060001373291
368.684,41.4700012207031
368.694,28.1700019836426
368.704,24.7800006866455
368.714,26.8800010681152
368.724,17.8500003814697
368.732,19.1800003051758
368.742,18.3400001525879
368.752,-1.92000007629395
368.762,-4.44000005722046
368.772,-11.2300004959106
368.782,-4.48000001907349
368.792,14.1700010299683
368.802,7.3100004196167
368.812,-5.53000020980835
368.822,-36.2600021362305
368.832,-60.060001373291
368.842,-93.0300064086914
368.852,-111.050003051758
368.862,-144.300003051758
368.872,-167.820007324219
368.882,-159.18000793457
368.892,-198.270004272461
368.902,-175.450012207031
368.912,-111.51000213623
368.922,-78.4300003051758
368.931,-22.0800018310547
368.941,37.7300033569336
368.951,74.9300003051758
368.961,99.7500076293945
368.971,109.970008850098
368.981,85.8200073242188
368.991,17.8800010681152
369.001,-42.8000030517578
369.011,-82.8100051879883
369.021,-105.590003967285
369.031,-99.7100067138672
369.041,-68.6300048828125
369.051,-46.930004119873
369.061,-3.15000009536743
369.071,68.7700042724609
369.081,144.09001159668
369.091,186.690002441406
369.101,204.750015258789
369.111,220.500015258789
369.121,217.100006103516
369.13,192.530014038086
369.14,171.990005493164
369.15,145.740005493164
369.16,107.450004577637
369.17,71.5699996948242
369.18,38.4600028991699
369.19,-8.05000019073486
369.2,-24.1800003051758
369.21,-42.0000038146973
369.22,-79.1000061035156
369.23,-93.4500045776367
369.24,-98.6300048828125
369.25,-92.1900024414062
369.26,-44.9700012207031
369.27,2.20000004768372
369.28,34.1900024414062
369.29,62.930004119873
369.3,104.120002746582
369.31,165.550003051758
369.32,211.820007324219
369.324,170.380004882812
369.334,157.390014648438
369.344,136.639999389648
369.354,126.490005493164
369.364,121.100006103516
369.374,118.68000793457
369.384,119.17000579834
369.394,112.490005493164
369.404,44.6900024414062
369.414,-27.3700008392334
369.424,-89.4200057983398
369.434,-137.580001831055
369.444,-160.330001831055
369.454,-190.820007324219
369.464,-184.620010375977
369.474,-148.820007324219
369.482,-92.1900024414062
369.492,-18.7600002288818
369.502,27.8600006103516
369.512,71.9600067138672
369.522,98.6600036621094
369.532,107.030006408691
369.542,97.8600082397461
369.552,62.7200012207031
369.562,9.94000053405762
369.572,-46.8600006103516
369.582,-84.8400039672852
369.592,-100.590003967285
369.602,-94.5000076293945
369.612,-70.1700057983398
369.622,-54.1100044250488
369.632,-23.1000003814697
369.642,5.84000015258789
369.652,27.5400009155273
369.662,47.560001373291
369.672,58.4800033569336
369.681,51.4100036621094
369.691,41.1600036621094
369.701,39.6900024414062
369.711,50.7500038146973
369.721,64.8500061035156
369.731,58.8000030517578
369.741,56.0300025939941
369.751,66.4600067138672
369.761,85.8500061035156
369.771,110.630004882812
369.781,122.360008239746
369.791,118.51000213623
369.801,119.450004577637
369.811,125.890007019043
369.821,122.600006103516
369.831,106.68000793457
369.841,73.2200012207031
369.851,44.1000022888184
369.861,33.3199996948242
369.871,24.0100002288818
369.88,11.3700008392334
369.89,-7.4200005531311
369.9,-23.9000015258789
369.91,-16.6900005340576
369.92,-8.43000030517578
369.93,-0.770000040531158
369.94,-3.53000020980835
369.95,-10.5000009536743
369.96,4.48000001907349
369.97,23.4500007629395
369.98,27.7500019073486
369.99,29.7100009918213
370,22.8900012969971
370.01,42.4200019836426
370.02,69.890007019043
370.03,86.5500030517578
370.04,88.7900009155273
370.05,57.5000038146973
370.06,39.6500015258789
370.07,19.810001373291
370.074,-112.870002746582
370.084,-101.600006103516
370.094,-94.6000061035156
370.104,-88.7600021362305
370.114,-64.7100067138672
370.124,-27.9300022125244
370.134,12.4600009918213
370.144,21.4500007629395
370.154,30.9400005340576
370.164,34.3300018310547
370.174,50.0800018310547
370.184,60.9000015258789
370.194,64.7100067138672
370.204,73.7100067138672
370.214,82.8100051879883
370.224,93.3800048828125
370.232,97.6100082397461
370.242,88.620002746582
370.252,72.8300018310547
370.262,55.9600028991699
370.272,38.7100028991699
370.282,19
370.292,10.2900009155273
370.302,0.870000064373016
370.312,-4.93000030517578
370.322,-1.40000009536743
370.332,14.4900007247925
370.342,39.9000015258789
370.352,62.5800018310547
370.362,77.2800064086914
370.372,80.7100067138672
370.382,88.3000030517578
370.392,86.4100036621094
370.402,69.5400009155273
370.412,23.2700004577637
370.422,-8.78000068664551
370.431,-26.7000007629395
370.441,-51.310001373291
370.451,-79.4800033569336
370.461,-96.8100051879883
370.471,-96.9800033569336
370.481,-81.370002746582
370.491,-60.0900039672852
370.501,-52.3900032043457
370.511,-31.2900009155273
370.521,0.560000002384186
370.531,31.6700019836426
370.541,54.560001373291
370.551,75.25
370.561,101.360008239746
370.571,125.090003967285
370.581,129.710006713867
370.591,109.160003662109
370.601,94.1100082397461
370.611,71.3300018310547
370.621,41.4700012207031
370.629,-5.91000032424927
370.639,-37.7300033569336
370.649,-42.310001373291
370.659,-43.120002746582
370.669,-52.8500022888184
370.679,-68.5300064086914
370.689,-54.9100036621094
370.699,-34.1900024414062
370.709,-17.2200012207031
370.719,-17.9900016784668
370.729,-16.730001449585
370.739,-2.24000000953674
370.749,3.4300000667572
370.759,-9.13000011444092
370.769,-19.0700016021729
370.779,-14.4900007247925
370.789,-10.5700006484985
370.799,-12.3500003814697
370.809,-39.9000015258789
370.819,-45.5000038146973
370.823,-26.4900016784668
370.833,-2.45000004768372
370.843,2.06000018119812
370.853,-3.46000027656555
370.863,1.99000012874603
370.873,-11.5500001907349
370.883,-41.2300033569336
370.893,-59.0400009155273
370.903,-77.9100036621094
370.913,-98.5900039672852
370.923,-96.3200073242188
370.933,-84.2100067138672
370.943,-64.8199996948242
370.953,-41.5100021362305
370.963,-44.4500007629395
370.973,-42.870002746582
370.982,-43.0500030517578
370.992,-48.9600028991699
371.002,-45.2500038146973
371.012,-49.5900039672852
371.022,-53.2300033569336
371.032,-46.7200012207031
371.042,-47.6300010681152
371.052,-39.3000030517578
371.062,-28.1000003814697
371.072,-28.310001373291
371.082,-13.3000001907349
371.092,30.7600021362305
371.102,67.3400039672852
371.112,65.870002746582
371.122,60.3400039672852
371.132,38.7400016784668
371.142,-2.55000019073486
371.152,-45.9900016784668
371.162,-77.5200042724609
371.172,-99.1900024414062
371.181,-113.570007324219
371.191,-118.890007019043
371.201,-107.970008850098
371.211,-83.2600021362305
371.221,-55.0200042724609
371.231,-37.9700012207031
371.241,-37.2400016784668
371.251,-30.2700023651123
371.261,-24.8500003814697
371.271,-25.4400005340576
371.281,-32.370002746582
371.291,-21.2400016784668
371.301,-11.9300003051758
371.311,-8.1200008392334
371.321,10.0400009155273
371.331,37.2000007629395
371.341,71.0500030517578
371.351,110.390007019043
371.361,148.290008544922
371.371,163.270004272461
371.379,167.120010375977
371.389,148.43000793457
371.399,119.42000579834
371.409,104.400001525879
371.419,75.9100036621094
371.429,45.0400009155273
371.439,4.62000036239624
371.449,-41.8200035095215
371.459,-71.640007019043
371.469,-97.4700012207031
371.479,-103.880004882812
371.489,-106.640007019043
371.499,-100.380004882812
371.509,-88.6500015258789
371.519,-58.1300010681152
371.529,-38.8500022888184
371.539,-29.8900012969971
371.549,-31.6000022888184
371.559,-49.1000022888184
371.569,-62.0500030517578
371.573,-83.3300018310547
371.583,-60.7200012207031
371.593,-39.060001373291
371.603,-20.9600009918213
371.613,-19.4900016784668
371.623,-2.13000011444092
371.633,14.3800010681152
371.643,39.9700012207031
371.653,56.560001373291
371.663,43.8900032043457
371.673,43.9600028991699
371.683,46.6900024414062
371.693,35.560001373291
371.703,21.7700004577637
371.713,15.3300008773804
371.723,-5.60000038146973
371.732,-12.2100009918213
371.742,-32.6900024414062
371.752,-71.9900054931641
371.762,-117.460006713867
371.772,-128.270004272461
371.782,-134.150009155273
371.792,-125.190002441406
371.802,-109.830001831055
371.812,-114.310005187988
371.822,-86.620002746582
371.832,-18.8300018310547
371.842,53.620002746582
371.852,102.550003051758
371.862,136.389999389648
371.872,152.350006103516
371.882,162.850006103516
371.892,156.380004882812
371.902,147.870010375977
371.912,104.300003051758
371.922,48.2600021362305
371.931,21.0300006866455
371.941,-9.94000053405762
371.951,-19.4200000762939
371.961,-2.41000008583069
371.971,-19.1100006103516
371.981,-33.7400016784668
371.991,-46.370002746582
372.001,-73.2200012207031
372.011,-107.310005187988
372.021,-153.09001159668
372.031,-207.130004882812
372.041,-248.460006713867
372.051,-268.760009765625
372.061,-267.190002441406
372.071,-263.370025634766
372.081,-224.910003662109
372.091,-183.080001831055
372.101,-113.92000579834
372.111,-46.1300010681152
372.121,-4.01999998092651
372.129,26.560001373291
372.139,33.560001373291
372.149,22.9900016784668
372.159,18.2700004577637
372.169,-10.2900009155273
372.179,-58.1000022888184
372.189,-83.4000015258789
372.199,-112.800003051758
372.209,-111.370002746582
372.219,-96.3500061035156
372.229,-62.7200012207031
372.239,-16.0300006866455
372.249,83.8600006103516
372.259,161.210006713867
372.269,182.730010986328
372.279,219.59001159668
372.289,245.630004882812
372.299,269.529998779297
372.309,274.430023193359
372.319,214.200012207031
372.323,-151.550003051758
372.333,-207.410003662109
372.343,-258.470001220703
372.353,-286.540008544922
372.363,-269.880004882812
372.373,-256.580017089844
372.383,-238.490005493164
372.393,-195.470016479492
372.403,-119.770004272461
372.413,-22.8900012969971
372.423,41.0900001525879
372.433,73.0100021362305
372.443,112.17000579834
372.453,145.110000610352
372.463,174.540008544922
372.473,164.040008544922
372.482,117.910003662109
372.492,96.2800064086914
372.502,82.4600067138672
372.512,76.4400024414062
372.522,54.4900016784668
372.532,12.9800004959106
372.542,-22.9200019836426
372.552,-49.0300025939941
372.562,-69.75
372.572,-96.4600067138672
372.582,-130.480010986328
372.592,-167.510009765625
372.602,-175.660003662109
372.612,-158.790008544922
372.622,-159.320007324219
372.632,-157.460006713867
372.642,-139.510009765625
372.652,-94.390007019043
372.662,-47.2100028991699
372.672,-29.3300018310547
372.681,-28.8000011444092
372.691,-27.0200004577637
372.701,-23.6600017547607
372.711,-29.7100009918213
372.721,-57.680004119873
372.731,-102.200004577637
372.741,-160.09001159668
372.751,-181.190002441406
372.761,-175.520004272461
372.771,-162.610000610352
372.781,-142.59001159668
372.791,-93.3400039672852
372.801,-21.4500007629395
372.811,44.0300025939941
372.821,85.9600067138672
372.831,95.9000015258789
372.841,99.2200012207031
372.851,105.800003051758
372.861,110.950004577637
372.871,104.93000793457
372.879,95.4800033569336
372.889,103.910003662109
372.899,123.230003356934
372.909,175.980010986328
372.919,202.330017089844
372.929,201.280014038086
372.939,203.910003662109
372.949,198.550003051758
372.959,189.770004272461
372.969,144.480010986328
372.979,82.5600051879883
372.989,18.1600017547607
372.999,-32.5800018310547
373.009,-66.9200057983398
373.019,-104.26000213623
373.029,-135.450012207031
373.039,-146.370010375977
373.049,-131.84001159668
373.059,-94.5000076293945
373.069,-62.7200012207031
373.073,19.1800003051758
373.083,18.5500011444092
373.093,23.310001373291
373.103,46.7900009155273
373.113,71.3300018310547
373.123,92.1500015258789
373.133,112.700004577637
373.143,134.68000793457
373.153,139.190002441406
373.163,141.400009155273
373.173,118.650009155273
373.183,74.2000045776367
373.193,26.1100006103516
373.203,-45.4600028991699
373.213,-109.580001831055
373.223,-127.050003051758
373.233,-139.889999389648
373.243,-154.980010986328
373.253,-155.540008544922
373.263,-147.310012817383
373.273,-113.01000213623
373.283,-67.5100021362305
373.293,-60.060001373291
373.303,-46.620002746582
373.313,-26.4900016784668
373.323,-16.5900001525879
373.333,31.4300022125244
373.343,49.9100036621094
373.353,36.8500022888184
373.363,51.620002746582
373.373,52.4600028991699
373.383,41.4000015258789
373.393,22.0100002288818
373.403,4.13000011444092
373.413,-5
373.423,-15.5400009155273
373.431,-31.2200012207031
373.441,-52.7400016784668
373.451,-68.1100006103516
373.461,-62.6500015258789
373.471,-72.1300048828125
373.481,-79.0300064086914
373.491,-106.780006408691
373.501,-102.51000213623
373.511,-140.940002441406
373.521,-179.480010986328
373.531,-179.200012207031
373.541,-193.860015869141
373.551,-132.790008544922
373.561,-117.18000793457
373.571,-80.7800064086914
373.581,-36.4700012207031
373.591,37.2000007629395
373.601,128.480010986328
373.611,128.170013427734
373.621,153.160003662109
373.629,171.640014648438
373.639,128.34001159668
373.649,66.6399993896484
373.659,22.5000019073486
373.669,-3.08000016212463
373.679,-44.2400016784668
373.689,-37.5200004577637
373.699,0.350000023841858
373.709,41.2300033569336
373.719,94.4600067138672
373.729,91.140007019043
373.739,85.3600006103516
373.749,75.4900054931641
373.759,38.3900032043457
373.769,-18.3700008392334
373.779,-53.6900024414062
373.789,-64.4700012207031
373.799,-74.8600006103516
373.809,-64.6100006103516
373.819,-26.9100017547607
373.823,82.7700042724609
373.833,92.0500030517578
373.843,93.5200042724609
373.853,59.6000022888184
373.863,17.0100002288818
373.873,28.560001373291
373.883,-31.2900009155273
373.893,-39.0900001525879
373.903,-98.9100036621094
373.913,-125.960006713867
373.923,-138.420013427734
373.933,-119.730003356934
373.943,-141.920013427734
373.953,-117.560005187988
373.963,-126.730003356934
373.973,-147.660003662109
373.982,-136.810012817383
373.992,-153.720001220703
374.002,-165.580001831055
374.012,-180.770004272461
374.022,-159.910003662109
374.032,-119.940002441406
374.042,-74.1600036621094
374.052,-40.8800010681152
374.062,33.2100028991699
374.072,119.42000579834
374.082,172.300003051758
374.092,212.800003051758
374.102,227.710006713867
374.112,214.130004882812
374.122,172.580001831055
374.132,105.350006103516
374.142,27.8200016021729
374.152,-51.8000030517578
374.162,-158.510009765625
374.172,-246.190017700195
374.181,-274.430023193359
374.191,-289.590026855469
374.201,-315.660003662109
374.211,-297.990020751953
374.221,-262.809997558594
374.231,-198.450012207031
374.241,-107.590003967285
374.251,-31.0800018310547
374.261,19.5300006866455
374.271,84.3100051879883
374.281,104.580001831055
374.291,100.970001220703
374.301,104.050003051758
374.311,50.3600006103516
374.321,16.730001449585
374.331,42.9800033569336
374.341,63.6300048828125
374.351,66.9500045776367
374.361,66.1100006103516
374.371,66.8800048828125
374.379,56.4200019836426
374.389,46.0900039672852
374.399,30.4500007629395
374.409,3.81000018119812
374.419,-22.7800006866455
374.429,-29.9600009918213
374.439,-17.7100009918213
374.449,2.55000019073486
374.459,40.9500007629395
374.469,100.520004272461
374.479,160.820007324219
374.489,227.780014038086
374.499,282.480010986328
374.509,307.300018310547
374.519,318.810028076172
374.529,306.180023193359
374.539,275.200012207031
374.549,219.550003051758
374.559,147.940002441406
374.569,72.1700057983398
374.573,-119.870002746582
374.583,-135.450012207031
374.593,-140.030014038086
374.603,-121.270004272461
374.613,-121.270004272461
374.623,-151.200012207031
374.633,-180.110015869141
374.643,-211.990005493164
374.653,-262.950012207031
374.663,-306.880004882812
374.673,-317.030029296875
374.683,-317.240020751953
374.693,-313.560028076172
374.703,-275.340026855469
374.713,-213.880004882812
374.723,-157.040008544922
374.732,-91.8000030517578
374.742,-30.3800010681152
374.752,16.8299999237061
374.762,46.7900009155273
374.772,65.0600051879883
374.782,89.5600051879883
374.792,95.0600051879883
374.802,75.3500061035156
374.812,54.4900016784668
374.822,37.2400016784668
374.832,35.310001373291
374.842,18.060001373291
374.852,9.34000015258789
374.862,-13.1900005340576
374.872,-50.3600006103516
374.882,-61.6700019836426
374.892,-60.6500015258789
374.902,-55.7500038146973
374.912,-30.5900020599365
374.922,15.1900005340576
374.93,59.3200035095215
374.94,107.870002746582
374.95,159.950012207031
374.96,179.620010375977
374.97,173.84001159668
374.98,161.420013427734
374.99,121.970008850098
375,58.870002746582
375.01,13.0900001525879
375.02,-7.3100004196167
375.03,-1.54000008106232
375.04,15.9600009918213
375.05,47.8800010681152
375.06,62.8200035095215
375.07,59.9900016784668
375.08,74.8600006103516
375.09,88.2300033569336
375.1,65.5500030517578
375.11,36.0100021362305
375.12,22.3600006103516
375.129,-10.5000009536743
375.139,-45.3600006103516
375.149,-85.9900054931641
375.159,-145.770004272461
375.169,-175.910003662109
375.179,-166.700012207031
375.189,-113.960006713867
375.199,-69.4000015258789
375.209,-35.0700035095215
375.219,-1.05000007152557
375.229,23.5200004577637
375.239,17.0400009155273
375.249,14.9100008010864
375.259,29.9200019836426
375.269,12.7700004577637
375.279,13.5400009155273
375.289,4.62000036239624
375.299,-12.2100009918213
375.309,-30.8700008392334
375.319,-52.3600006103516
375.323,-159.810012817383
375.333,-159.950012207031
375.343,-155.220001220703
375.353,-135.870010375977
375.363,-86.4500045776367
375.373,-2.48000001907349
375.383,127.890007019043
375.393,207.650009155273
375.403,256.090026855469
375.413,289.690002441406
375.423,311.25
375.433,284.300018310547
375.443,205.870010375977
375.453,107.660003662109
375.463,9.45000076293945
375.473,-55.7500038146973
375.482,-86.3100051879883
375.492,-107.830001831055
375.502,-134.080001831055
375.512,-162.470001220703
375.522,-138.460006713867
375.532,-66.9200057983398
375.542,-51.3800010681152
375.552,-84.0000076293945
375.562,-90.890007019043
375.572,-85.0500030517578
375.582,-68.0699996948242
375.592,-14.8400011062622
375.602,18.4400005340576
375.612,13.7200002670288
375.622,46.2300033569336
375.632,119.520004272461
375.642,203.660003662109
375.652,278.140014648438
375.662,311.25
375.672,279.400024414062
375.68,222.110015869141
375.69,158.650009155273
375.7,53.7900009155273
375.71,-68.6700057983398
375.72,-157.040008544922
375.73,-212.380004882812
375.74,-240.480010986328
375.75,-264.210021972656
375.76,-295.960021972656
375.77,-327.530029296875
375.78,-327.460021972656
375.79,-294.380004882812
375.8,-268.27001953125
375.81,-262.920013427734
375.82,-215.250015258789
375.83,-125.330009460449
375.84,-41.1600036621094
375.85,48.5100021362305
375.86,135.34001159668
375.87,210.910003662109
375.879,262.920013427734
375.889,292.600006103516
375.899,284.02001953125
375.909,206.390014648438
375.919,118.160003662109
375.929,50.1500015258789
375.939,-18.6200008392334
375.949,-100.900001525879
375.959,-159
375.969,-184.450012207031
375.979,-217.910003662109
375.989,-244.120010375977
375.999,-221.790008544922
376.009,-174.260009765625
376.019,-114.620002746582
376.029,-4.76000022888184
376.039,103.140007019043
376.049,173.320007324219
376.059,261.029998779297
376.069,314.050018310547
376.073,-54.6000022888184
376.083,-82.0700073242188
376.093,-114.310005187988
376.103,-150.670013427734
376.113,-134.5
376.123,-107.200004577637
376.133,-66.8500061035156
376.143,-17.1500015258789
376.153,39.4800033569336
376.163,72.3400039672852
376.173,70.3100051879883
376.183,82.7400054931641
376.193,100.480003356934
376.203,74.1300048828125
376.213,42.5200004577637
376.223,30.3800010681152
376.232,-0.0700000002980232
376.242,-25.3700008392334
376.252,-14.1400003433228
376.262,-32.5500030517578
376.272,-56.4900016784668
376.282,-49.7300033569336
376.292,-33.810001373291
376.302,-52.6000022888184
376.312,-62.4700012207031
376.322,-38.6700019836426
376.332,-32.0900001525879
376.342,-24.7400016784668
376.352,-15.3300008773804
376.362,-36.5700035095215
376.372,-49.3800010681152
376.382,-28.5900020599365
376.392,-11.9000005722046
376.402,-54.1100044250488
376.412,-92.3600006103516
376.422,-79.620002746582
376.43,-52.7800025939941
376.44,-77.9800033569336
376.45,-97.5800018310547
376.46,-78.7800064086914
376.47,-57.9900016784668
376.48,-60.1300010681152
376.49,-72.2700042724609
376.5,-78.5400009155273
376.51,-92.0500030517578
376.52,-99.7800064086914
376.53,-102.900001525879
376.54,-134.470001220703
376.55,-166.630004882812
376.56,-160.960006713867
376.57,-143.150009155273
376.58,-133.029998779297
376.59,-79.4800033569336
376.6,12.0400009155273
376.61,70.0300064086914
376.62,71.1500015258789
376.629,46.6500015258789
376.639,28.6600017547607
376.649,7.07000017166138
376.659,-30.5900020599365
376.669,-39.7900009155273
376.679,-1.6800000667572
376.689,54.0700035095215
376.699,133.420013427734
376.709,215.560012817383
376.719,272.330017089844
376.729,293.820007324219
376.739,310.450012207031
376.749,326.130004882812
376.759,326.970001220703
376.769,301.940002441406
376.779,271
376.789,221.230010986328
376.799,166.140014648438
376.809,104.650001525879
376.819,36.3300018310547
376.823,18.3000011444092
376.833,55.680004119873
376.843,91.5900039672852
376.853,132.720001220703
376.863,163.620010375977
376.873,190.540008544922
376.883,213.110015869141
376.893,230.440017700195
376.903,245.070007324219
376.913,246.400009155273
376.923,241.990005493164
376.933,239.120010375977
376.943,233.760009765625
376.953,217.380004882812
376.963,190.640014648438
376.973,166.390014648438
376.982,143.950012207031
376.992,118.820007324219
377.002,82.0700073242188
377.012,56.1700019836426
377.022,42.4200019836426
377.032,30.8000011444092
377.042,26.5300006866455
377.052,23.5900020599365
377.062,19.2800006866455
377.072,29.6400012969971
377.082,18.1300010681152
377.092,7.03000020980835
377.102,-1.89000010490417
377.112,-11.2700004577637
377.122,-24.2500019073486
377.132,-43.7500038146973
377.142,-52.9900016784668
377.152,-55.8200035095215
377.162,-56.2400016784668
377.172,-65.7600021362305
377.18,-82.390007019043
377.19,-86.4800033569336
377.2,-69.4700012207031
377.21,-44.5500030517578
377.22,-40.3900032043457
377.23,-24.7400016784668
377.24,-7.91000032424927
377.25,19.1400012969971
377.26,36.3300018310547
377.27,45.8800010681152
377.28,66.0800018310547
377.29,78.4000015258789
377.3,81.4800033569336
377.31,84.5900039672852
377.32,85.4300003051758
377.33,82.4600067138672
377.34,79.4800033569336
377.35,82.6300048828125
377.36,87.0800018310547
377.37,86.9000015258789
377.379,83.0900039672852
377.389,75.0400009155273
377.399,68.6700057983398
377.409,65.4100036621094
377.419,48.9600028991699
377.429,44.6900024414062
377.439,41.9300003051758
377.449,34.9300003051758
377.459,45.9200019836426
377.469,68.25
377.479,99.2900009155273
377.489,127.850006103516
377.499,148.68000793457
377.509,162.68000793457
377.519,130.830001831055
377.529,108.150001525879
377.539,63.5900039672852
377.549,-9.6200008392334
377.559,-53.060001373291
377.569,-81.8600006103516
377.573,-78.1900024414062
377.583,-13.9300003051758
377.593,19.5300006866455
377.603,34.370002746582
377.613,41.5400009155273
377.623,50.9900016784668
377.633,68.7700042724609
377.643,71.1500015258789
377.653,44.5500030517578
377.663,19.1800003051758
377.673,25.6200008392334
377.683,58.5200042724609
377.693,89.7000045776367
377.703,103.700004577637
377.713,78.5
377.723,71.0800018310547
377.732,82.6700057983398
377.742,77.2100067138672
377.752,38.5
377.762,-9.94000053405762
377.772,-41.6100006103516
377.782,-50.6100006103516
377.792,-48.680004119873
377.802,-44.5200004577637
377.812,-38.25
377.822,-18.1600017547607
377.832,12.2100009918213
377.842,67.9300003051758
377.852,118.540008544922
377.862,136.25
377.872,145.740005493164
377.882,157.360000610352
377.892,159.980010986328
377.902,137.650009155273
377.912,104.960006713867
377.922,72.3400039672852
377.93,28.2400016784668
377.94,-8.61000061035156
377.95,-34.0900001525879
377.96,-75.3200073242188
377.97,-91.7000045776367
377.98,-69.9600067138672
377.99,-66.4600067138672
378,-70.5600051879883
378.01,-70.4200057983398
378.02,-67.5500030517578
378.03,-65.7600021362305
378.04,-48.5400009155273
378.05,-28.6300010681152
378.06,-24.1500015258789
378.07,-20.9600009918213
378.08,-17.9900016784668
378.09,24.1100006103516
378.1,48.0500030517578
378.11,38.1800003051758
378.12,9.90000057220459
378.129,-6.82000017166138
378.139,-30.1700019836426
378.149,-52.1100006103516
378.159,-91.9100036621094
378.169,-107.970008850098
378.179,-95.0200042724609
378.189,-56.3500022888184
378.199,-21.1400012969971
378.209,22.4300003051758
378.219,79.3100051879883
378.229,142.34001159668
378.239,229.460006713867
378.249,270.060028076172
378.259,273.800018310547
378.269,288.080017089844
378.279,299
378.289,305.230010986328
378.299,280.590026855469
378.309,212.970016479492
378.319,98.3800048828125
378.323,-236.280014038086
378.333,-275.52001953125
378.343,-244.510009765625
378.353,-184.970001220703
378.363,-143.950012207031
378.373,-87.8800048828125
378.383,-28.8700008392334
378.393,16.060001373291
378.403,40.0700035095215
378.413,63.3800048828125
378.423,65.5900039672852
378.433,44.4800033569336
378.443,22.2600002288818
378.453,-9.76000022888184
378.463,-30.8300018310547
378.473,-45.9500007629395
378.482,-51.870002746582
378.492,-56.9400024414062
378.502,-58.870002746582
378.512,-36.2600021362305
378.522,1.99000012874603
378.532,37.9700012207031
378.542,71.9600067138672
378.552,98.9400024414062
378.562,124.530006408691
378.572,162.850006103516
378.582,213.920013427734
378.592,246.850006103516
378.602,258.370025634766
378.612,273.52001953125
378.622,273.840026855469
378.632,256.650024414062
378.642,232.570007324219
378.652,192.600006103516
378.662,149.380004882812
378.672,113.890007019043
378.68,77.5900039672852
378.69,30.5900020599365
378.7,-11.3400001525879
378.71,-17.8500003814697
378.72,-26.1400012969971
378.73,-6.89000034332275
378.74,22.2900009155273
378.75,20.7900009155273
378.76,32.3000030517578
378.77,46.4100036621094
378.78,56.5900039672852
378.79,64.5400009155273
378.8,45.7100028991699
378.81,46.6500015258789
378.82,51.1700019836426
378.83,50.2600021362305
378.84,71.9600067138672
378.85,54.7700042724609
378.86,30.730001449585
378.87,17.8500003814697
378.879,3.64000010490417
378.889,-8.32999992370605
378.899,-24.4600009918213
378.909,-64.9200057983398
378.919,-74.1300048828125
378.929,-88.7600021362305
378.939,-82.7400054931641
378.949,-52.2200012207031
378.959,-62.370002746582
378.969,-54.7000007629395
378.979,-10.0100002288818
378.989,43.1500015258789
378.999,89.1100006103516
379.009,123.130004882812
379.019,101.040008544922
379.029,69.1900024414062
379.039,36.0800018310547
379.049,-3.67000007629395
379.059,-55.0900039672852
379.069,-125.960006713867
379.073,-99.8200073242188
379.083,-74.1300048828125
379.093,-44.310001373291
379.103,-14.1700010299683
379.113,12.3900003433228
379.123,41.2600021362305
379.133,61.6300010681152
379.143,88.9700012207031
379.153,111.790008544922
379.163,122.18000793457
379.173,124.560005187988
379.183,133.310012817383
379.193,131.139999389648
379.203,125.090003967285
379.213,112.380004882812
379.223,81.4100036621094
379.231,52.0100021362305
379.241,39.6900024414062
379.251,24.8500003814697
379.261,20.4000015258789
379.271,25.4400005340576
379.281,21.8400001525879
379.291,40.6700019836426
379.301,56.6600036621094
379.311,73.9900054931641
379.321,84.0700073242188
379.331,85.3600006103516
379.341,91.0700073242188
379.351,93.620002746582
379.361,92.8200073242188
379.371,81.7200012207031
379.381,46.5500030517578
379.391,27.4000015258789
379.401,14.5200004577637
379.411,2.87000012397766
379.421,-5.98000049591064
379.43,8.78000068664551
379.44,60.6500015258789
379.45,81.8600006103516
379.46,111.470008850098
379.47,118.890007019043
379.48,121.480003356934
379.49,112.000007629395
379.5,108.43000793457
379.51,59.7100028991699
379.52,2.59000015258789
379.53,-45.7100028991699
379.54,-28.0000019073486
379.55,-49.0700035095215
379.56,-123.340003967285
379.57,-111.720008850098
379.58,-95.5500030517578
379.59,-61.4600028991699
379.6,-29.5400009155273
379.61,46.8300018310547
379.62,69.6800003051758
379.629,83.5800018310547
379.639,140.240005493164
379.649,85.9900054931641
379.659,69.4700012207031
379.669,105.840003967285
379.679,119.590003967285
379.689,136.850006103516
379.699,101.390007019043
379.709,137.760009765625
379.719,131.600006103516
379.729,181.820007324219
379.739,185.290008544922
379.749,139.68000793457
379.759,192.110015869141
379.769,163.380004882812
379.779,197.500015258789
379.789,89.390007019043
379.799,38.5
379.809,8.47000026702881
379.819,-1.75000011920929
379.823,-60.7900047302246
379.833,-83.7500076293945
379.843,-93.870002746582
379.853,-57.3600044250488
379.863,6.23000049591064
379.873,3.46000027656555
379.883,8.92000007629395
379.893,14.3500003814697
379.903,-9.97000026702881
379.913,-18.4100017547607
379.923,-54.1100044250488
379.933,-110.390007019043
379.943,-155.150009155273
379.953,-149.660003662109
379.963,-85.1900024414062
379.973,-99.9900054931641
379.981,-52.5000038146973
379.991,-29.2900009155273
380.001,-37.1300010681152
380.011,-23.1300010681152
380.021,-5.74000024795532
380.031,22.9900016784668
380.041,82.6300048828125
380.051,111.330001831055
380.061,114.830001831055
380.071,66.8500061035156
380.081,21.9100017547607
380.091,-38.810001373291
380.101,-90.7500076293945
380.111,-136.950012207031
380.121,-164.250015258789
380.131,-198.130004882812
380.141,-216.330017089844
380.151,-175.240005493164
380.161,-120.120002746582
380.171,-66.4300003051758
380.18,-3.50000023841858
380.19,60.2300033569336
380.2,128.380004882812
380.21,184.660003662109
380.22,199.640014648438
380.23,190.610015869141
380.24,188.050003051758
380.25,151.900009155273
380.26,79.620002746582
380.27,26.8800010681152
380.28,8.5
380.29,-10.3600006103516
380.3,-22.0100002288818
380.31,-24.0100002288818
380.32,-5.25000047683716
380.33,29.7500019073486
380.34,57.5700035095215
380.35,76.890007019043
380.36,98.1700057983398
380.37,103.67000579834
380.379,86.1000061035156
380.389,65.870002746582
380.399,56.7700042724609
380.409,38.8800010681152
380.419,4.83000040054321
380.429,-13.6800003051758
380.439,-0.350000023841858
380.449,1.50000011920929
380.459,-7.91000032424927
380.469,-16.2700004577637
380.479,-3.78000020980835
380.489,-9.24000072479248
380.499,-12.7400007247925
380.509,-5.8100004196167
380.519,4.93000030517578
380.529,-11.8600006103516
380.539,-28.0000019073486
380.549,-34.0900001525879
380.559,-42.9800033569336
380.569,-66.1500015258789
380.573,15.7500009536743
380.583,51.310001373291
380.593,72.9700012207031
380.603,42.7700004577637
380.613,11.7200002670288
380.623,9.20000076293945
380.633,-13.0200004577637
380.643,-51.9000015258789
380.653,-45.4600028991699
380.663,-25.3700008392334
380.673,-40.3200035095215
380.683,-45.7100028991699
380.693,-29.4700012207031
380.703,-27.0900020599365
380.713,-42.1000022888184
380.723,-35.560001373291
380.731,-13.8600006103516
380.741,-1.33000004291534
380.751,-2.87000012397766
380.761,7.49000024795532
380.771,19.3200016021729
380.781,11.4800004959106
380.791,0.490000009536743
380.801,5.8100004196167
380.811,9.94000053405762
380.821,-13.2300004959106
380.831,-21.560001373291
380.841,-8.5
380.851,-13.7500009536743
380.861,-25.9700012207031
380.871,-11.3700008392334
380.881,-2.03000020980835
380.891,-19.1100006103516
380.901,-26.2100009918213
380.911,-11.1300001144409
380.921,-17.6400012969971
380.93,-31.6000022888184
380.94,-25.8600006103516
380.95,-24.810001373291
380.96,-35.9099998474121
380.97,-43.8500022888184
380.98,-40.7000007629395
380.99,-41.4000015258789
381,-42.9100036621094
381.01,-32.1300010681152
381.02,-6.44000053405762
381.03,6.58000040054321
381.04,21.8400001525879
381.05,51.0300025939941
381.06,61.6000022888184
381.07,47.3200035095215
381.08,51.1300010681152
381.09,58.0300025939941
381.1,32.2700004577637
381.11,18.3700008392334
381.12,20.5100002288818
381.129,-9.10000038146973
381.139,-36.2600021362305
381.149,-40.8800010681152
381.159,-35.9400024414062
381.169,-50.430004119873
381.179,-36.0800018310547
381.189,19.2100009918213
381.199,14.1400003433228
381.209,22.0800018310547
381.219,52.2200012207031
381.229,24.9900016784668
381.239,13.3300008773804
381.249,1.08000004291534
381.259,6.51000022888184
381.269,-28.6300010681152
381.279,-9.59000015258789
381.289,39.7600021362305
381.299,17.1800003051758
381.309,36.5400009155273
381.319,70.8000030517578
381.323,-25.060001373291
381.333,-51.2700042724609
381.343,-60.060001373291
381.353,-75.9800033569336
381.363,-79.0600051879883
381.373,-85.640007019043
381.383,-101.570007324219
381.393,-116.620002746582
381.403,-98.870002746582
381.413,-81.9700012207031
381.423,-101.220001220703
381.433,-96.390007019043
381.443,-69.75
381.453,-25.3000011444092
381.463,33.3199996948242
381.473,65.0300064086914
381.481,90.4000015258789
381.491,130.970001220703
381.501,139.790008544922
381.511,112.520004272461
381.521,56.5200042724609
381.531,12.0400009155273
381.541,5.60000038146973
381.551,-34.9300003051758
381.561,-63.2800025939941
381.571,-75.0700073242188
381.581,-63.0000038146973
381.591,-4.13000011444092
381.601,17.8500003814697
381.611,-28.8700008392334
381.621,-71.7100067138672
381.631,-64.7100067138672
381.641,-64.1500015258789
381.651,-28.4900016784668
381.661,8.05000019073486
381.671,29.9200019836426
381.68,69.5800018310547
381.69,109.440002441406
381.7,96.1800079345703
381.71,60.9700012207031
381.72,18.8600006103516
381.73,-26.8800010681152
381.74,-87.5000076293945
381.75,-131.910003662109
381.76,-175.140014648438
381.77,-223.580017089844
381.78,-213.880004882812
381.79,-170.940002441406
381.8,-137.060012817383
381.81,-76.5400009155273
381.82,2.20000004768372
381.83,62.680004119873
381.84,113.43000793457
381.85,143.710006713867
381.86,163.240005493164
381.87,168.630004882812
381.879,168.450012207031
381.889,133.350006103516
381.899,78.0500030517578
381.909,46.1600036621094
381.919,13.3700008392334
381.929,-27.0200004577637
381.939,-44.6900024414062
381.949,-50.0100021362305
381.959,-62.3000030517578
381.969,-32.8300018310547
381.979,13.3700008392334
381.989,11.0200004577637
381.999,21.9400005340576
382.009,44.1700019836426
382.019,36.6800003051758
382.029,30.9700012207031
382.039,31.5300006866455
382.049,29.8200016021729
382.059,42.7000007629395
382.069,61.3900032043457
382.073,-14.4900007247925
382.083,-41.1600036621094
382.093,-77.4500045776367
382.103,-116.76000213623
382.113,-123.93000793457
382.123,-119.940002441406
382.133,-125.580009460449
382.143,-125.370002746582
382.153,-104.790008544922
382.163,-60.620002746582
382.173,0
382.183,36.0100021362305
382.193,52.7100028991699
382.203,75.9500045776367
382.213,98.4200057983398
382.223,117.770004272461
382.231,94.6700057983398
382.241,43.0800018310547
382.251,13.8200006484985
382.261,-35
382.271,-86.0600051879883
382.281,-134.990005493164
382.291,-202.190002441406
382.301,-244.610015869141
382.311,-247.100006103516
382.321,-256.580017089844
382.331,-252.450012207031
382.341,-212.310012817383
382.351,-155.610000610352
382.361,-61.7400016784668
382.371,46.1300010681152
382.381,120.68000793457
382.391,168.560012817383
382.401,216.750015258789
382.411,215.320007324219
382.421,194.460006713867
382.43,167.230010986328
382.44,108.040008544922
382.45,44.8300018310547
382.46,-33.810001373291
382.47,24.4600009918213
382.48,260.850006103516
382.49,269.220001220703
382.5,83.2300033569336
382.51,-4.30000019073486
382.52,-230.230010986328
382.53,-318.710021972656
382.54,-181.960006713867
382.55,-198.970016479492
382.56,-227.920013427734
382.57,-111.050003051758
382.58,-41.4700012207031
382.59,-131.950012207031
382.6,-175.350006103516
382.61,-65.1000061035156
382.62,99.2900009155273
382.629,202.190002441406
382.639,241.670013427734
382.649,182.450012207031
382.659,120.360008239746
382.669,94.4300079345703
382.679,108.990005493164
382.689,126.520004272461
382.699,117.000007629395
382.709,148.120010375977
382.719,232.360015869141
382.729,256.090026855469
382.739,119.520004272461
382.749,-16.8700008392334
382.759,-35.3800010681152
382.769,-5.14000034332275
382.779,-105.770004272461
382.789,-195.330001831055
382.799,-259.870025634766
382.809,-314.440002441406
382.819,-310.620025634766
382.823,-92.640007019043
382.833,75.4200057983398
