Time,GyroX
135.309,13.4700002670288
135.312,28.5900020599365
135.322,26.560001373291
135.332,21.6600017547607
135.342,6.89000034332275
135.352,-27.5400009155273
135.362,-50.430004119873
135.372,-25.6200008392334
135.382,3.85000014305115
135.392,22.9600009918213
135.402,13.4400005340576
135.412,3.3600001335144
135.422,8.99000072479248
135.432,22.4000015258789
135.442,31.1100006103516
135.452,34.7200012207031
135.462,13.4400005340576
135.478,3.25000023841858
135.488,-7.38000011444092
135.498,-0.21000000834465
135.508,16.6200008392334
135.518,-10.710000038147
135.528,0.910000026226044
135.538,13.7500009536743
135.548,9.41000080108643
135.558,11.1300001144409
135.568,8.07999992370605
135.578,16.8299999237061
135.588,27.9300022125244
135.598,27.0200004577637
135.608,1.6100001335144
135.618,5.07000017166138
135.628,9.6200008392334
135.638,19.4900016784668
135.648,17.8800010681152
135.658,1.47000002861023
135.668,-1.6100001335144
135.677,-11.2300004959106
135.687,13.8900003433228
135.697,41.5400009155273
135.707,6.89000034332275
135.717,-10.6700000762939
135.727,-34.370002746582
135.737,-22.9600009918213
135.747,22.2900009155273
135.757,0.660000026226044
135.767,-18.8300018310547
135.777,5.74000024795532
135.787,33.7400016784668
135.797,23.6900005340576
135.807,18.2000007629395
135.817,-16.5200004577637
135.827,4.16000032424927
135.837,19.0700016021729
135.847,5.77000045776367
135.857,-14.5900011062622
135.867,-38.1800003051758
135.871,29.0100021362305
135.881,-1.4300000667572
135.891,36.6800003051758
135.901,32.4400024414062
135.911,33.810001373291
135.921,22.0100002288818
135.931,2.17000007629395
135.941,35.6599998474121
135.951,25.5800018310547
135.961,6.23000049591064
135.971,12.9100008010864
135.981,6.33000040054321
135.991,13.6500005722046
136.001,14.7700004577637
136.011,8.85000038146973
136.021,18.480001449585
136.03,14.8400011062622
136.04,-9.34000015258789
136.05,8.19000053405762
136.06,14.1700010299683
136.07,-1.6100001335144
136.08,15.7100009918213
136.09,17.4300003051758
136.1,9.45000076293945
136.11,29.7800006866455
136.12,35.310001373291
136.13,17.6000003814697
136.14,-1.33000004291534
136.15,18.6200008392334
136.16,43.3600006103516
136.17,41.0500030517578
136.18,31.1500015258789
136.19,-0.870000064373016
136.2,-35.7700004577637
136.21,-9.59000015258789
136.22,22.1900005340576
136.228,0.240000009536743
136.238,-6.79000043869019
136.248,15.5400009155273
136.258,47.0700035095215
136.268,53.620002746582
136.278,10.1100006103516
136.288,-11.7600002288818
136.298,6.89000034332275
136.308,14.1000003814697
136.318,8.01000022888184
136.328,-0.21000000834465
136.338,8.92000007629395
136.348,14.1400003433228
136.358,36.120002746582
136.368,72.3800048828125
136.378,51.9400024414062
136.388,44.8300018310547
136.398,53.3400039672852
136.408,50.6100006103516
136.418,42.2400016784668
136.427,27.0200004577637
136.437,13.3300008773804
136.447,-17.7800006866455
136.457,-15.7800006866455
136.467,-2.52000021934509
136.477,28.980001449585
136.487,35.310001373291
136.497,48.5400009155273
136.507,48.7500038146973
136.517,67.2700042724609
136.527,75.4200057983398
136.537,78.1500015258789
136.547,32.2300033569336
136.557,19.3900012969971
136.567,-16.8000011444092
136.577,-0.21000000834465
136.587,-18.0200004577637
136.597,-22.9600009918213
136.607,-18.3400001525879
136.617,-10.1500005722046
136.621,35.6599998474121
136.631,-3.1100001335144
136.641,-3.53000020980835
136.651,-51.7600021362305
136.661,-50.120002746582
136.671,-5.77000045776367
136.681,19.8800010681152
136.691,64.3300018310547
136.701,73.640007019043
136.711,72.9000015258789
136.721,98.1000061035156
136.731,119.730003356934
136.741,113.120002746582
136.751,117.560005187988
136.761,60.0200042724609
136.771,21.6300010681152
136.78,-10.3600006103516
136.79,-58.5900039672852
136.8,-131.320007324219
136.81,-137.970001220703
136.82,-136.110000610352
136.83,-124.810005187988
136.84,-113.610008239746
136.85,-84.8000030517578
136.86,-22.0800018310547
136.87,-2.55000019073486
136.88,47.2100028991699
136.89,49.7700004577637
136.9,38.5
136.91,22.3300018310547
136.92,7.91000032424927
136.93,-12.1400003433228
136.94,-5.28000020980835
136.95,3.85000014305115
136.96,11.2000007629395
136.97,24.3900012969971
136.978,28.9400005340576
136.988,30.5200023651123
136.998,69.6500015258789
137.008,74.1600036621094
137.018,92.5700073242188
137.028,70.7700042724609
137.038,51.4800033569336
137.048,69.2600021362305
137.058,51.310001373291
137.068,32.1599998474121
137.078,10.6400003433228
137.088,-8.61000061035156
137.098,-4.23000001907349
137.108,13.8600006103516
137.118,20.5400009155273
137.128,23.060001373291
137.138,49.1400032043457
137.148,54.8400039672852
137.158,73.8800048828125
137.168,64.9600067138672
137.177,55.8200035095215
137.187,55.0500030517578
137.197,41.4400024414062
137.207,17.3900012969971
137.217,-23.480001449585
137.227,-98.4900054931641
137.237,-128.130004882812
137.247,-174.230010986328
137.257,-219.970016479492
137.267,-259.140014648438
137.277,-266.029998779297
137.287,-230.960006713867
137.297,-179.650009155273
137.307,-113.080001831055
137.317,-55.7200012207031
137.327,-6.47000026702881
137.337,50.0500030517578
137.347,99.2900009155273
137.357,120.92000579834
137.367,121.310005187988
137.371,171.990005493164
137.381,162.050003051758
137.391,144.93000793457
137.401,120.050003051758
137.411,87.0100021362305
137.421,55.9600028991699
137.431,12.0700006484985
137.441,-29.3300018310547
137.451,-49.1400032043457
137.461,-65.2000045776367
137.471,-106.990005493164
137.481,-81.6500015258789
137.491,-46.3000030517578
137.501,-16.0300006866455
137.511,10.1100006103516
137.521,3.60000014305115
137.53,-2.59000015258789
137.54,13.7500009536743
137.55,40.9800033569336
137.56,54.3900032043457
137.57,41.5100021362305
137.58,8.28999996185303
137.59,0.520000040531158
137.6,12.9100008010864
137.61,6.19000005722046
137.62,0.0700000002980232
137.63,-27.3000011444092
137.64,-70.1700057983398
137.65,-83.1600036621094
137.66,-86.6900024414062
137.67,-79.5500030517578
137.68,-70.7300033569336
137.69,-47.2500038146973
137.7,-5.35000038146973
137.71,37.6600036621094
137.72,75.25
137.728,96.7400054931641
137.738,110.070007324219
137.748,130.060012817383
137.758,149.660003662109
137.768,166.210006713867
137.778,189.280014038086
137.788,196.030014038086
137.798,168.350006103516
137.808,136.5
137.818,122.530006408691
137.828,92.6100006103516
137.838,68.1100006103516
137.848,64.9900054931641
137.858,43.8200035095215
137.868,35.9099998474121
137.878,33.6000022888184
137.888,-18.7200012207031
137.898,-52.2900009155273
137.908,-74.0600051879883
137.918,-110.810005187988
137.927,-138.700012207031
137.937,-169.570007324219
137.947,-203.240005493164
137.957,-207.230010986328
137.967,-158.860000610352
137.977,-90.5800018310547
137.987,-41.9300003051758
137.997,-23.6600017547607
138.007,7.77000045776367
138.017,45.6700019836426
138.027,98.7300033569336
138.037,129.600006103516
138.047,123.830009460449
138.057,116.76000213623
138.067,115.570007324219
138.077,121.240005493164
138.087,133.560012817383
138.097,131.389999389648
138.107,131.560012817383
138.117,135.450012207031
138.121,159.140014648438
138.131,152.18000793457
138.141,127.750007629395
138.151,117.350006103516
138.161,97.1600036621094
138.171,85.4700012207031
138.181,79.2000045776367
138.191,63.0300025939941
138.201,66.0400009155273
138.211,82.140007019043
138.221,97.2600021362305
138.231,116.480003356934
138.241,136.360000610352
138.251,145.040008544922
138.261,155.610000610352
138.271,173.670013427734
138.279,151.580001831055
138.289,90.7500076293945
138.299,10.1100006103516
138.309,-104.960006713867
138.319,-225.850006103516
138.329,-328.720001220703
138.339,-443.800018310547
138.349,-490.630035400391
138.359,-409.850006103516
138.369,-233.830017089844
138.379,-26.810001373291
138.389,156.170013427734
138.399,270.27001953125
138.409,303.660003662109
138.419,294.350006103516
138.429,321.720001220703
138.439,372.710021972656
138.449,373.940032958984
138.459,310.970001220703
138.469,158.900009155273
138.478,-23.5900020599365
138.488,-146.540008544922
138.498,-151.830001831055
138.508,-269.809997558594
138.518,-344.290008544922
138.528,-297.460021972656
138.538,-284.760009765625
138.548,-211.010009765625
138.558,-94.3600082397461
138.568,9.17000007629395
138.578,92.9600067138672
138.588,179.440002441406
138.598,240.130004882812
138.608,247.760009765625
138.618,221.650009155273
138.628,211.010009765625
138.638,197.260009765625
138.648,194.810012817383
138.658,183.290008544922
138.668,179.200012207031
138.677,207.830017089844
138.687,237.93000793457
138.697,235.230010986328
138.707,193.790008544922
138.717,113.120002746582
138.727,43.120002746582
138.737,-30.9400005340576
138.747,-147.700012207031
138.757,-247.900009155273
138.767,-287.980010986328
138.777,-335.260009765625
138.787,-306.490020751953
138.797,-261.480010986328
138.807,-229.070007324219
138.817,-165.300003051758
138.827,-100.520004272461
138.837,-53.1300010681152
138.847,-7.5600004196167
138.857,29.5400009155273
138.867,62.9600028991699
138.871,100.410003662109
138.881,103.600006103516
138.891,110.040008544922
138.901,116.370002746582
138.911,104.120002746582
138.921,76.4700012207031
138.931,52.7400016784668
138.941,46.3400039672852
138.951,63.0700035095215
138.961,92.8200073242188
138.971,135.970001220703
138.981,145.950012207031
138.991,182.350006103516
139.001,201.770004272461
139.011,134.710006713867
139.021,68.6000061035156
139.029,-31.2200012207031
139.039,-115.850006103516
139.049,-157.25
139.059,-245.660018920898
139.069,-315.100006103516
139.079,-258.470001220703
139.089,-223.190017700195
139.099,-236.18000793457
139.109,-165.130004882812
139.119,-129.040008544922
139.129,-104.820007324219
139.139,-39.0200004577637
139.149,13.1900005340576
139.159,27.0200004577637
139.169,42.6600036621094
139.179,43.6800003051758
139.189,42.2800025939941
139.199,68.1800003051758
139.209,76.1900024414062
139.219,73.4300003051758
139.228,84.4200057983398
139.238,78.120002746582
139.248,78.120002746582
139.258,79.3800048828125
139.268,75.9800033569336
139.278,53.7900009155273
139.288,40.7400016784668
139.298,25.0200004577637
139.308,27.3000011444092
139.318,36.8200035095215
139.328,21.0300006866455
139.338,20.3000011444092
139.348,39.8300018310547
139.358,48.9600028991699
139.368,52.0100021362305
139.378,63.1700019836426
139.388,59.9200019836426
139.398,67.4800033569336
139.408,62.5100021362305
139.418,36.6400032043457
139.427,21.0000019073486
139.437,4.20000028610229
139.447,-12.9500007629395
139.457,-17.4300003051758
139.467,-30.0300006866455
139.477,-25.2700004577637
139.487,-9.94000053405762
139.497,2.80000019073486
139.507,21.0700016021729
139.517,24.1800003051758
139.527,17.7400016784668
139.537,19
139.547,39.1600036621094
139.557,22.6100006103516
139.567,-4.37000036239624
139.577,2.27000021934509
139.587,9.03000068664551
139.597,12.1800003051758
139.607,-0.140000000596046
139.617,-11.4100008010864
139.621,-28.7000007629395
139.631,-16.2700004577637
139.641,-3.15000009536743
139.651,-1.08000004291534
139.661,-7.45000028610229
139.671,-8.07999992370605
139.681,-13.4700002670288
139.691,-4.41000032424927
139.701,10.9500007629395
139.711,6.05000019073486
139.721,10.0800008773804
139.731,5.5600004196167
139.741,-0.840000033378601
139.751,17.6000003814697
139.761,26.7700004577637
139.771,5.8100004196167
139.779,1.40000009536743
139.789,1.50000011920929
139.799,14.8000011444092
139.809,28.7000007629395
139.819,15.7500009536743
139.829,5.28000020980835
139.839,9.94000053405762
139.849,18.3400001525879
139.859,18.1300010681152
139.869,5.8100004196167
139.879,-3.04000020027161
139.889,1.33000004291534
139.899,1.82000005245209
139.909,1.99000012874603
139.919,6.30000019073486
139.929,4.65000009536743
139.939,15.5400009155273
139.949,17.6000003814697
139.959,11.5500001907349
139.969,10.5000009536743
139.978,-3.50000023841858
139.988,-6.68000030517578
139.998,0.170000001788139
140.008,-11.7900009155273
140.018,-10.0800008773804
140.028,11.5500001907349
140.038,7.49000024795532
140.048,3.50000023841858
140.058,6.93000030517578
140.068,5.95000028610229
140.078,17.4600009918213
140.088,9.66000080108643
140.098,-7.84000015258789
140.108,3.64000010490417
140.118,5.98000049591064
140.128,13.1900005340576
140.138,16.5200004577637
140.148,4.01999998092651
140.158,6.12000036239624
140.168,19.6700000762939
140.177,19.5300006866455
140.187,12.2800006866455
140.197,0.350000023841858
140.207,-3.08000016212463
140.217,6.33000040054321
140.227,4.83000040054321
140.237,9.3100004196167
140.247,14.4500007629395
140.257,-6.05000019073486
140.267,-13.7900009155273
140.277,8.47000026702881
140.287,4.0600004196167
140.297,5.67000007629395
140.307,0.730000019073486
140.317,-17.4300003051758
140.327,7.91000032424927
140.337,3.22000026702881
140.347,-16.1300010681152
140.357,-4.93000030517578
140.367,2.24000000953674
140.371,24.7800006866455
140.381,8.1200008392334
140.391,4.93000030517578
140.401,-14.5600004196167
140.411,-35.2100028991699
140.421,-7.49000024795532
140.431,-10.0100002288818
140.441,-4.23000001907349
140.451,21.9400005340576
140.461,14.3100004196167
140.471,30.6900005340576
140.481,22.7500019073486
140.491,-0.0300000011920929
140.501,27.4700012207031
140.511,27.5400009155273
140.521,27.9300022125244
140.529,37.0300025939941
140.539,21.6300010681152
140.549,31.9500007629395
140.559,45.2500038146973
140.569,33.9800033569336
140.579,38.3600006103516
140.589,15.2200002670288
140.599,5.70000028610229
140.609,21.2400016784668
140.619,1.12000000476837
140.629,-4.65000009536743
140.639,3.46000027656555
140.649,-9.0600004196167
140.659,-1.29000008106232
140.669,-11.2700004577637
140.679,-23.3800010681152
140.689,-14.1700010299683
140.699,-13.4400005340576
140.709,-8.92000007629395
140.719,-6.75000047683716
140.728,-6.93000030517578
140.738,15.5700006484985
140.748,20.3000011444092
140.758,27.6100006103516
140.768,40.4600028991699
140.778,26.2100009918213
140.788,29.2900009155273
140.798,30.6600017547607
140.808,15.9600009918213
140.818,18.0200004577637
140.828,13.8200006484985
140.838,11.1600008010864
140.848,21.5900001525879
140.858,20.230001449585
140.868,14.4500007629395
140.878,19.1800003051758
140.888,22.9900016784668
140.898,16.6900005340576
140.908,10.0800008773804
140.918,-1.12000000476837
140.927,-2.94000005722046
140.937,-13.7500009536743
140.947,-13.7900009155273
140.957,-9.27000045776367
140.967,-12.0700006484985
140.977,-3.85000014305115
140.987,0.380000025033951
140.997,6.19000005722046
141.007,7.84000015258789
141.017,-5.32000017166138
141.027,-10.1800003051758
141.037,-10.3900003433228
141.047,-17.6700000762939
141.057,-19.1100006103516
141.067,-0.940000057220459
141.077,6.30000019073486
141.087,14.1400003433228
141.097,29.4300022125244
141.107,38.4300003051758
141.117,47.3900032043457
141.121,42.8400001525879
141.131,32.9700012207031
141.141,45.2500038146973
141.151,41.120002746582
141.161,40.810001373291
141.171,48.7900009155273
141.181,41.0900001525879
141.191,24.0100002288818
141.201,18.1300010681152
141.211,-4.55000019073486
141.221,-31.9500007629395
141.231,-39.5100021362305
141.241,-56.6600036621094
141.251,-62.0500030517578
141.261,-44.1000022888184
141.271,-29.3600006103516
141.279,-10.5300006866455
141.289,17.3200016021729
141.299,26.9500007629395
141.309,37.870002746582
141.319,51.310001373291
141.329,41.5400009155273
141.339,23.060001373291
141.349,12.4900007247925
141.359,1.75000011920929
141.369,-9.73000049591064
141.379,-13.7900009155273
141.389,-4.23000001907349
141.399,18.3700008392334
141.409,31.2900009155273
141.419,48.8900032043457
141.429,72.7300033569336
141.439,77.1000061035156
141.449,73.5300064086914
141.459,71.1500015258789
141.469,50.6400032043457
141.478,28.2800006866455
141.488,5.35000038146973
141.498,-19.7700004577637
141.508,-38.8500022888184
141.518,-49.7700004577637
141.528,-56.7000045776367
141.538,-68.6300048828125
141.548,-44.870002746582
141.558,-22.3600006103516
141.568,-7.4200005531311
141.578,15.5700006484985
141.588,27.8900012969971
141.598,29.6400012969971
141.608,53.8300018310547
141.618,73.9200057983398
141.628,59.5700035095215
141.638,46.8300018310547
141.648,27.8900012969971
141.658,7.94000053405762
141.668,17.6400012969971
141.677,18.7200012207031
141.687,8.96000003814697
141.697,10.3600006103516
141.707,6.89000034332275
141.717,12.4600009918213
141.727,10.8500003814697
141.737,21.1700000762939
141.747,16.7600002288818
141.757,22.4300003051758
141.767,28.4200019836426
141.777,20.0500011444092
141.787,15.4700002670288
141.797,20.0500011444092
141.807,28.7000007629395
141.817,36.7800025939941
141.827,57.4000015258789
141.837,76.8600006103516
141.847,92.7800064086914
141.857,123.160003662109
141.867,138.600006103516
141.871,33.9099998474121
141.881,-3.53000020980835
141.891,-16.9400005340576
141.901,-2.10000014305115
141.911,9.10000038146973
141.921,22.8900012969971
141.931,41.6800003051758
141.941,62.7500038146973
141.951,78.3300018310547
141.961,71.0100021362305
141.971,54.9500007629395
141.981,24.3900012969971
141.991,-31.7400016784668
142.001,-72.7300033569336
142.011,-105.980003356934
142.021,-133.630004882812
142.029,-147.560012817383
142.039,-161.940002441406
142.049,-179.09001159668
142.059,-169.890014648438
142.069,-157.460006713867
142.079,-139.230010986328
142.089,-112.560005187988
142.099,-89.6300048828125
142.109,-57.5700035095215
142.119,-29.2600021362305
142.129,0.800000011920929
142.139,44.5500030517578
142.149,74.0600051879883
142.159,86.9000015258789
142.169,104.190002441406
142.179,95.6500015258789
142.189,75.8800048828125
142.199,48.5100021362305
142.209,17.7400016784668
142.219,-9.41000080108643
142.228,-42.1700019836426
142.238,-56.9400024414062
142.248,-59.2900009155273
142.258,-63.4500045776367
142.268,-45.3200035095215
142.278,-18.8600006103516
142.288,20.5100002288818
142.298,57.3600044250488
142.308,80.5700073242188
142.318,101.290008544922
142.328,131.070007324219
142.338,150.710006713867
142.348,177.800003051758
142.358,207.09001159668
142.368,227.150009155273
142.378,231.030014038086
142.388,250.670013427734
142.398,270.02001953125
142.408,246.570007324219
142.418,236.530014038086
142.422,81.8600006103516
142.432,41.4400024414062
142.442,1.99000012874603
142.452,-38.8800010681152
142.462,-80.640007019043
142.472,-107.620002746582
142.482,-116.340003967285
142.492,-134.889999389648
142.502,-143.5
142.512,-137.160003662109
142.522,-144.480010986328
142.532,-151.09001159668
142.542,-135.410003662109
142.552,-125.120002746582
142.562,-124.770004272461
142.572,-103.880004882812
142.58,-85.5700073242188
142.59,-63.4500045776367
142.6,-46.4800033569336
142.61,-8.19000053405762
142.62,23.310001373291
142.63,43.8500022888184
142.64,60.370002746582
142.65,65.2400054931641
142.66,58.310001373291
142.67,69.3000030517578
142.68,82.7000045776367
142.69,87.3200073242188
142.7,92.0800018310547
142.71,121.130004882812
142.72,141.290008544922
142.73,129.570007324219
142.74,111.190002441406
142.75,94.0400009155273
142.76,49.7000007629395
142.77,12.2800006866455
142.779,-33.7000007629395
142.789,-96.1100082397461
142.799,-128.550003051758
142.809,-120.68000793457
142.819,-122.740005493164
142.829,-109.550003051758
142.839,-76.6500015258789
142.849,-39.370002746582
142.859,6.47000026702881
142.869,28.2400016784668
142.879,40.5300025939941
142.889,53.620002746582
142.899,48.3000030517578
142.909,35.4200019836426
142.919,21.8000011444092
142.929,4.0600004196167
142.939,-4.58000040054321
142.949,16.3400001525879
142.959,52.9200019836426
142.969,68.5600051879883
142.978,91.0000076293945
142.988,115.290008544922
142.998,128.760009765625
143.008,127.710006713867
143.018,110.140007019043
143.028,85.7500076293945
143.038,49.0700035095215
143.048,18.6200008392334
143.058,7.45000028610229
143.068,-17.0100002288818
143.078,-28.0300006866455
143.088,-3.74000024795532
143.098,31.5300006866455
143.108,58.310001373291
143.118,58.5500030517578
143.128,60.060001373291
143.138,74.3000030517578
143.148,75.8800048828125
143.158,64.8899993896484
143.168,68.2800064086914
143.172,59.9900016784668
143.182,58.060001373291
143.192,74.0900039672852
143.202,104.050003051758
143.212,123.690002441406
143.222,145.670013427734
143.232,163.730010986328
143.242,159.950012207031
143.252,148.400009155273
143.262,135.310012817383
143.272,104.330001831055
143.282,59.8800010681152
143.292,43.8900032043457
143.302,32.5500030517578
143.312,41.9600028991699
143.322,41.0200004577637
143.33,54.560001373291
143.34,60.5100021362305
143.35,86.1300048828125
143.36,87.1800079345703
143.37,71.9200057983398
143.38,49.8400039672852
143.39,25.0900020599365
143.4,12.2500009536743
143.41,-13.7500009536743
143.42,-25.1600017547607
143.43,-10.6000003814697
143.44,-13.3000001907349
143.45,-0.380000025033951
143.46,24.5300006866455
143.47,30.2700023651123
143.48,20.2600002288818
143.49,6.72000026702881
143.5,-9.20000076293945
143.51,-32.7900009155273
143.52,-59.6000022888184
143.529,-73.8500061035156
143.539,-63.4900016784668
143.549,-42.1000022888184
143.559,-21.2800006866455
143.569,23.2400016784668
143.579,74.0600051879883
143.589,84.7700042724609
143.599,73.7800064086914
143.609,63.6600036621094
143.619,26.1400012969971
143.629,-20.3000011444092
143.639,-56.5200042724609
143.649,-81.7600021362305
143.659,-91.870002746582
143.669,-93.4100036621094
143.679,-77.6600036621094
143.689,-44.9400024414062
143.699,2.20000004768372
143.709,41.1900024414062
143.719,76.0900039672852
143.728,102.650001525879
143.738,110.18000793457
143.748,96.4900054931641
143.758,49.3800010681152
143.768,16.6599998474121
143.778,-13.4700002670288
143.788,-47.0400009155273
143.798,-61.4200019836426
143.808,-42.5200004577637
143.818,-10.0100002288818
143.828,38.6400032043457
143.838,81.9300003051758
143.848,124.980003356934
143.858,169.610000610352
143.868,203.870010375977
143.878,202.750015258789
143.888,188.020004272461
143.898,152.350006103516
143.908,114.870002746582
143.918,78.1900024414062
143.922,60.7200012207031
143.932,85.3300018310547
143.942,94.7100067138672
143.952,102.340003967285
143.962,85.8200073242188
143.972,43.5400009155273
143.982,-8.85000038146973
143.992,-51.9400024414062
144.002,-74.0600051879883
144.012,-96.3500061035156
144.022,-107.270004272461
144.032,-89.7400054931641
144.042,-50.7500038146973
144.052,2.73000001907349
144.062,38.2900009155273
144.072,86.3800048828125
144.08,114.480003356934
144.09,116.970008850098
144.1,89.5300064086914
144.11,51.3400039672852
144.12,18.3400001525879
144.13,-19.25
144.14,-53.6900024414062
144.15,-91.7700042724609
144.16,-99.890007019043
144.17,-75.5300064086914
144.18,-48.1900024414062
144.19,-33.560001373291
144.2,-28.1700019836426
144.21,-8.92000007629395
144.22,5.95000028610229
144.23,11.0600004196167
144.24,-10.7400007247925
144.25,-42.6600036621094
144.26,-55.1600036621094
144.27,-68.0699996948242
144.279,-42.9400024414062
144.289,-42.4900016784668
144.299,-5.67000007629395
144.309,37.5500030517578
144.319,85.7100067138672
144.329,90.120002746582
144.339,95.370002746582
144.349,127.400009155273
144.359,135.270004272461
144.369,129.360000610352
144.379,77.3100051879883
144.389,15.9900007247925
144.399,-44.2700004577637
144.409,-86.0600051879883
144.419,-114.060005187988
144.429,-156.480010986328
144.439,-168.490005493164
144.449,-157.150009155273
144.459,-132.860000610352
144.469,-94.640007019043
144.478,-51.5900039672852
144.488,-13.3700008392334
144.498,21.4500007629395
144.508,48.680004119873
144.518,73.2200012207031
144.528,99.4000015258789
144.538,97.7500076293945
144.548,82.4200057983398
144.558,63.1700019836426
144.568,60.8300018310547
144.578,49.9400024414062
144.588,28.0300006866455
144.598,1.6100001335144
144.608,-24.8500003814697
144.618,-40.810001373291
144.628,-61.180004119873
144.638,-89.6000061035156
144.648,-105.380004882812
144.658,-81.4100036621094
144.668,-59.3900032043457
144.672,31.1800022125244
144.682,54.4200019836426
144.692,73.9900054931641
144.702,72.0300064086914
144.712,52.9500007629395
144.722,31.6400012969971
144.732,39.1600036621094
144.742,54.5300025939941
144.752,67.7600021362305
144.762,72.4800033569336
144.772,82.140007019043
144.782,108.390007019043
144.792,133.350006103516
144.802,158.200012207031
144.812,166.950012207031
144.822,173.320007324219
144.83,172.230010986328
144.84,163.620010375977
144.85,138.630004882812
144.86,117.600006103516
144.87,103.770004272461
144.88,100.76000213623
144.89,107.550003051758
144.9,112.140007019043
144.91,122.740005493164
144.92,124.980003356934
144.93,102.160003662109
144.94,92.5700073242188
144.95,77.7700042724609
144.96,55.8200035095215
144.97,10.3900003433228
144.98,-50.2900009155273
144.99,-96.7000045776367
145,-118.190002441406
145.01,-108.43000793457
145.02,-72.3100051879883
145.029,-33.560001373291
145.039,9.10000038146973
145.049,58.1300010681152
145.059,93.9700012207031
145.069,131.18000793457
145.079,144.720001220703
145.089,141.360000610352
145.099,120.190002441406
145.109,88.4400024414062
145.119,58.1300010681152
145.129,32.1300010681152
145.139,20.1200008392334
145.149,16.3400001525879
145.159,-1.57000005245209
145.169,-20.5800018310547
145.179,-20.8900012969971
145.189,-22.8900012969971
145.199,-22.6800003051758
145.209,-39.2300033569336
145.219,-43.6400032043457
145.228,-28.4500007629395
145.238,-13.4000005722046
145.248,-18.4100017547607
145.258,-5.49000024795532
145.268,14.9100008010864
145.278,43.1900024414062
145.288,61.7400016784668
145.298,72.3100051879883
145.308,87.5700073242188
145.318,97.6800079345703
145.328,84.8400039672852
145.338,70.9800033569336
145.348,63.560001373291
145.358,48.6500015258789
145.368,20.230001449585
145.378,0.310000002384186
145.388,7.24000024795532
145.398,14.0300006866455
145.408,0.350000023841858
145.418,-2.10000014305115
145.422,55.370002746582
145.432,73.5
145.442,84.8400039672852
145.452,95.8300018310547
145.462,119.800003051758
145.472,140.450012207031
145.482,136.990005493164
145.492,116.440002441406
145.502,108.150001525879
145.512,81.0900039672852
145.522,51.4800033569336
145.532,27.6800022125244
145.542,2.10000014305115
145.552,-29.0800018310547
145.562,-64.5699996948242
145.572,-77.9800033569336
145.58,-56.3800010681152
145.59,-44.6600036621094
145.6,-47.4200019836426
145.61,-35
145.62,-18.2000007629395
145.63,-5.63000011444092
145.64,-6.16000032424927
145.65,2.62000012397766
145.66,17.3600006103516
145.67,18.9000015258789
145.68,10.7800006866455
145.69,10.9900007247925
145.7,4.65000009536743
145.71,-9.90000057220459
145.72,-23.310001373291
145.73,-33.9500007629395
145.74,-50.0100021362305
145.75,-63.7700042724609
145.76,-67.5100021362305
145.77,-67.5800018310547
145.779,-65.4500045776367
145.789,-59.6700019836426
145.799,-56.9800033569336
145.809,-49.0000038146973
145.819,-47.0000038146973
145.829,-59.6400032043457
145.839,-69.2300033569336
145.849,-55.8600044250488
145.859,-48.7900009155273
145.869,-33.9500007629395
145.879,-16.2400016784668
145.889,18.5800018310547
145.899,40.4600028991699
145.909,52.2200012207031
145.919,46.3000030517578
145.929,47.5300025939941
145.939,52.9200019836426
145.949,43.7100028991699
145.959,40.5300025939941
145.969,47.9800033569336
145.978,42.0700035095215
145.988,38.4600028991699
145.998,61.4200019836426
146.008,75.4600067138672
146.018,79.9000015258789
146.028,87.5000076293945
146.038,93.3100051879883
146.048,93.5900039672852
146.058,82.2500076293945
146.068,64.2600021362305
146.078,57.7100028991699
146.088,54.1400032043457
146.098,50.8500022888184
146.108,67.6500015258789
146.118,86.9400024414062
146.128,82.4200057983398
146.138,70.6600036621094
146.148,91.0000076293945
146.158,106.540008544922
146.168,80.4300003051758
146.172,-37.8300018310547
146.182,-41.5100021362305
146.192,-42.4900016784668
146.202,-29.7100009918213
146.212,5.25000047683716
146.222,27.9300022125244
146.232,32.8600006103516
146.242,20.1600017547607
146.252,9.10000038146973
146.262,-7.03000020980835
146.272,-22.7500019073486
146.282,-5.91000032424927
146.292,18.5800018310547
146.302,52.430004119873
146.312,97.9600067138672
146.322,136.740005493164
146.33,134.470001220703
146.34,86.4100036621094
146.35,48.370002746582
146.36,20.0500011444092
146.37,-31.5000019073486
146.38,-82.5300064086914
146.39,-104.820007324219
146.4,-108.320007324219
146.41,-90.3300018310547
146.42,-36.120002746582
146.43,17.1100006103516
146.44,39.2700004577637
146.45,87.1100006103516
146.46,133.210006713867
146.47,157.290008544922
146.48,153.470001220703
146.49,117.740005493164
146.5,73.7400054931641
146.51,35.2800025939941
146.52,3.32000017166138
146.529,-29.3600006103516
146.539,-66.9500045776367
146.549,-86.7300033569336
146.559,-83.5100021362305
146.569,-83.370002746582
146.579,-65.8000030517578
146.589,-31.3200016021729
146.599,1.92000007629395
146.609,29.4300022125244
146.619,53.4100036621094
146.629,82.9100036621094
146.639,75.7400054931641
146.649,70.8400039672852
146.659,85.1500015258789
146.669,91.5600051879883
146.679,83.5400009155273
146.689,67.5800018310547
146.699,37.9400024414062
146.709,-18.2700004577637
146.719,-57.8900032043457
146.727,-88.4100036621094
146.737,-123.900009155273
146.747,-130.440002441406
146.757,-93.0600051879883
146.767,-56.870002746582
146.777,-30.730001449585
146.787,-16.5500011444092
146.797,2.66000008583069
146.807,17.0400009155273
146.817,31.6700019836426
146.827,39.4100036621094
146.837,9.48000049591064
146.847,1.78000009059906
146.857,18.7200012207031
146.867,24.1800003051758
146.877,13.2300004959106
146.887,10.5300006866455
146.897,18.3400001525879
146.907,17.5
146.917,11.0900001525879
146.921,-17.2900009155273
146.931,-43.3300018310547
146.941,-36.9600028991699
146.951,-14.6600008010864
146.961,-7.14000034332275
146.971,-3.88000011444092
146.981,-5.42000007629395
146.991,-18.0900001525879
147.001,-3.67000007629395
147.011,12.7000007629395
147.021,-8.28999996185303
147.031,-18.1300010681152
147.041,-1.47000002861023
147.051,-7.70000028610229
147.061,-14.2400007247925
147.071,-1.36000001430511
147.08,-12.8100004196167
147.09,-18.8600006103516
147.1,4.26999998092651
147.11,5.28000020980835
147.12,-13.3300008773804
147.13,-10.2200002670288
147.14,-4.65000009536743
147.15,-16.2000007629395
147.16,-18.0900001525879
147.17,-18.3400001525879
147.18,-45.4300003051758
147.19,-54.4200019836426
147.2,-45.5300025939941
147.21,-56.7700042724609
147.22,-54.1400032043457
147.23,-36.2900009155273
147.24,-35.1700019836426
147.25,-26.9100017547607
147.26,11.2000007629395
147.27,29.4700012207031
147.279,40.8400001525879
147.289,55.930004119873
147.299,25.060001373291
147.309,-13.2300004959106
147.319,-25.5800018310547
147.329,-49.5900039672852
147.339,-72.1700057983398
147.349,-57.8200035095215
147.359,-49.0700035095215
147.369,-42.5200004577637
147.379,-1.33000004291534
147.389,31.2500019073486
147.399,41.1600036621094
147.409,76.0900039672852
147.419,89.5300064086914
147.429,72.4500045776367
147.439,64.1500015258789
147.449,45.7800025939941
147.459,15.0100011825562
147.469,21.0700016021729
147.477,23.8300018310547
147.487,4.44000005722046
147.497,-2.03000020980835
147.507,-14.1400003433228
147.517,-38.7800025939941
147.527,-48.8900032043457
147.537,-45.9900016784668
147.547,-58.1000022888184
147.557,-38.5300025939941
147.567,2.20000004768372
147.577,27.230001449585
147.587,71.9200057983398
147.597,100.870002746582
147.607,92.2900009155273
147.617,98.9800033569336
147.627,90.3000030517578
147.637,60.930004119873
147.647,36.0500030517578
147.657,4.44000005722046
147.667,-39.1300010681152
147.671,-13.4000005722046
147.681,-14.4500007629395
147.691,-4.8600001335144
147.701,-2.34000015258789
147.711,-10.7400007247925
147.721,-5.1100001335144
147.731,4.79000043869019
147.741,17.5700016021729
147.751,30.1700019836426
147.761,25.3000011444092
147.771,26.7000007629395
147.781,32.2000007629395
147.791,12.4200010299683
147.801,-29.2600021362305
147.811,-72.3100051879883
147.821,-103.320007324219
147.83,-123.480003356934
147.84,-119.800003051758
147.85,-92.9200057983398
147.86,-52.6000022888184
147.87,-5.42000007629395
147.88,42.1000022888184
147.89,63.4200019836426
147.9,72.7300033569336
147.91,70.9400024414062
147.92,33.9099998474121
147.93,-2.83000016212463
147.94,-30.6900005340576
147.95,-60.7600021362305
147.96,-81.0900039672852
147.97,-86.4500045776367
147.98,-80.1800003051758
147.99,-62.0900039672852
148,-55.5400009155273
148.01,-70
148.02,-76.4000015258789
148.029,-90.6100006103516
148.039,-104.370002746582
148.049,-106.92000579834
148.059,-126.350006103516
148.069,-117.320007324219
148.079,-88.0600051879883
148.089,-56.7000045776367
148.099,-22.8900012969971
148.109,3.95000028610229
148.119,24.4600009918213
148.129,57.5700035095215
148.139,73.3600006103516
148.149,58.3400039672852
148.159,38.6000022888184
148.169,28.5900020599365
148.179,1.6100001335144
148.189,-18.9300003051758
148.199,-14.1400003433228
148.209,-9.45000076293945
148.219,-12.8800010681152
148.227,12.4900007247925
148.237,28.7000007629395
148.247,6.65000009536743
148.257,-5.67000007629395
148.267,-0.0300000011920929
148.277,-6.8600001335144
148.287,-24.2500019073486
148.297,-11.3700008392334
148.307,0.700000047683716
148.317,12.8100004196167
148.327,28.2400016784668
148.337,35.7700004577637
148.347,27.5800018310547
148.357,16.8299999237061
148.367,2.06000018119812
148.377,-19.7700004577637
148.387,-50.5000038146973
148.397,-67.2000045776367
148.407,-67.7200012207031
148.417,-68.3500061035156
148.421,-90.6100006103516
148.431,-87.4300079345703
148.441,-91.2400054931641
148.451,-70.3500061035156
148.461,-39.6500015258789
148.471,-32.5500030517578
148.481,-28.2400016784668
148.491,-18.060001373291
148.501,7.38000011444092
148.511,20.2600002288818
148.521,14.9100008010864
148.531,15.9900007247925
148.541,30.6900005340576
148.551,29.3300018310547
148.561,17.9500007629395
148.571,3.57000017166138
148.58,8.43000030517578
148.59,6.19000005722046
148.6,-7.4200005531311
148.61,-1.64000010490417
148.62,1.19000005722046
148.63,-19.8400001525879
148.64,-42.8000030517578
148.65,-63.1000022888184
148.66,-54.1400032043457
148.67,-56.870002746582
148.68,-42.0700035095215
148.69,-25.7900009155273
148.7,2.13000011444092
148.71,17.7800006866455
148.72,12.0000009536743
148.73,11.4800004959106
148.74,7.77000045776367
148.75,-19.1400012969971
148.76,-38.3900032043457
148.77,-57.3600044250488
148.779,-69.7900009155273
148.789,-87.640007019043
148.799,-107.450004577637
148.809,-102.160003662109
148.819,-73.640007019043
148.829,-46.060001373291
148.839,-14.7300004959106
148.849,12.4900007247925
148.859,37.3800010681152
148.869,57.2900009155273
148.879,62.1900024414062
148.889,51.3400039672852
148.899,28.0300006866455
148.909,-3.08000016212463
148.919,-33.9800033569336
148.929,-57.5700035095215
148.939,-80.7400054931641
148.949,-94.2500076293945
148.959,-92.3600006103516
148.969,-67.9700012207031
148.977,-46.7600021362305
148.987,-32.7900009155273
148.997,-23.9000015258789
149.007,-14.6300010681152
149.017,-10.6400003433228
149.027,-26.7000007629395
149.037,-32.4800033569336
149.047,-37.3800010681152
149.057,-23.3800010681152
149.067,-14.7700004577637
149.077,-15.8500003814697
149.087,-11.9300003051758
149.097,-8.61000061035156
149.107,-5.53000020980835
149.117,-15.2900009155273
149.127,-28.4500007629395
149.137,-33.3900032043457
149.147,-32.3000030517578
149.157,-32.5800018310547
149.167,-48.7900009155273
149.171,6.02000045776367
149.181,28.0000019073486
149.191,46.6900024414062
149.201,56.0000038146973
149.211,36.5700035095215
149.221,7.21000051498413
149.231,2.76000022888184
149.241,1.75000011920929
149.251,-7.35000038146973
149.261,-29.7100009918213
149.271,-39.7600021362305
149.281,-14.1000003814697
149.291,23.2000007629395
149.301,54.1400032043457
149.311,59.7400016784668
149.321,49.2100028991699
149.33,51.4100036621094
149.34,34.3000030517578
149.35,12.6000003814697
149.36,-27.6100006103516
149.37,-52.3200035095215
149.38,-60.4400024414062
149.39,-62.1600036621094
149.4,-53.1600036621094
149.41,-48.680004119873
149.42,-28.4200019836426
149.43,-7.49000024795532
149.44,10.7400007247925
149.45,33.0400009155273
149.46,39.4800033569336
149.47,55.4700012207031
149.48,58.1000022888184
149.49,50.8200035095215
149.5,10.1500005722046
149.51,-39.5500030517578
149.52,-56.9100036621094
149.529,-59.6700019836426
149.539,-38.1500015258789
149.549,-10.9900007247925
149.559,20.6800003051758
149.569,72.4100036621094
149.579,128.59001159668
149.589,160.960006713867
149.599,156.200012207031
149.609,99.0500030517578
149.619,49.6600036621094
149.629,6.02000045776367
149.639,-46.620002746582
149.649,-116.200004577637
149.659,-177.450012207031
149.669,-219.870010375977
149.679,-255.360015869141
149.689,-242.230010986328
149.699,-213.500015258789
149.709,-177.380004882812
149.719,-148.710006713867
149.727,-105.42000579834
149.737,-73.2900009155273
149.747,-27.8600006103516
149.757,-3.39000010490417
149.767,1.22000002861023
149.777,2.69000005722046
149.787,26.2500019073486
149.797,50.7500038146973
149.807,65.8000030517578
149.817,86.5500030517578
149.827,110.250007629395
149.837,173.210006713867
149.847,236.210006713867
149.857,254.730010986328
149.867,247.940017700195
149.877,222.250015258789
149.887,175.210006713867
149.897,100.450004577637
149.907,34.1900024414062
149.917,-25.5500011444092
149.921,-72.4100036621094
149.931,-44.5900039672852
149.941,-38.7100028991699
149.951,-44.2400016784668
149.961,-55.7200012207031
149.971,-78.7100067138672
149.981,-110.140007019043
149.991,-138.040008544922
150.001,-160.190002441406
150.011,-166.18000793457
150.021,-141.400009155273
150.031,-93.8300018310547
150.041,-43.6800003051758
150.051,13.7900009155273
150.061,62.5100021362305
150.071,93.8000030517578
150.08,111.020004272461
150.09,114.620002746582
150.1,110.910003662109
150.11,108.530006408691
150.12,104.51000213623
150.13,95.9000015258789
150.14,91.3800048828125
150.15,112.140007019043
150.16,112.450004577637
150.17,87.1800079345703
150.18,52.9500007629395
150.19,21.0700016021729
150.2,-9.17000007629395
150.21,-33.9099998474121
150.22,-64.7100067138672
150.23,-92.4000015258789
150.24,-88.4400024414062
150.25,-61.1100044250488
150.26,-24.5000019073486
150.27,-8.19000053405762
150.279,9.41000080108643
150.289,33.5300025939941
150.299,43.8900032043457
150.309,30.310001373291
150.319,1.75000011920929
150.329,-5.70000028610229
150.339,-3.46000027656555
150.349,-2.24000000953674
150.359,-12.9800004959106
150.369,-14.7000007629395
150.379,-16.5500011444092
150.389,-11.0900001525879
150.399,-4.93000030517578
150.409,-18.7600002288818
150.419,-30.5900020599365
150.429,-35
150.439,-38.3900032043457
150.449,-55.370002746582
150.459,-57.430004119873
150.469,-52.6400032043457
150.477,-49.4500007629395
150.487,-56.9400024414062
150.497,-48.370002746582
150.507,-23.6200008392334
150.517,3.95000028610229
150.527,23.060001373291
150.537,30.3400020599365
150.547,45.9900016784668
150.557,47.3900032043457
150.567,38.9500007629395
150.577,15.4700002670288
150.587,0.450000017881393
150.597,-16.1300010681152
150.607,-26.8800010681152
150.617,-32.6500015258789
150.627,-14.0000009536743
150.637,-2.55000019073486
150.647,17.810001373291
150.657,29.5000019073486
150.667,41.2300033569336
150.671,-41.8200035095215
150.681,-70
150.691,-101.530006408691
150.701,-118.750007629395
150.711,-94.0800018310547
150.721,-60.8300018310547
150.731,-3.95000028610229
150.741,20.7900009155273
150.751,53.5100021362305
150.761,64.2200012207031
150.771,75.2800064086914
150.781,19
150.791,-13.4700002670288
150.801,73.0400009155273
150.811,63.4200019836426
150.821,-52.2200012207031
150.83,-84.6600036621094
150.84,-73.25
150.85,-97.7200012207031
150.86,-89.3500061035156
150.87,-37.620002746582
150.88,-27.4000015258789
150.89,0.520000040531158
150.9,91.3500061035156
150.91,189.700012207031
150.92,241.600006103516
150.93,243.740005493164
150.94,170.130004882812
150.95,75.5300064086914
150.96,-12.4200010299683
150.97,-113.710006713867
150.98,-231.800018310547
150.99,-328.720001220703
151,-387.310028076172
151.01,-361.900024414062
151.02,-249.370010375977
151.029,-103.040008544922
151.039,-34.2300033569336
151.049,11.9000005722046
151.059,78.7800064086914
151.069,197.360015869141
151.079,248.500015258789
151.089,201.530014038086
151.099,182.380004882812
151.109,124.700004577637
151.119,16.6200008392334
151.129,-20.2600002288818
151.139,-56.7000045776367
151.149,-74.6500015258789
151.159,-43.2600021362305
151.169,57.8200035095215
151.179,137.410003662109
151.189,212.060012817383
151.199,270.370025634766
151.209,242.620010375977
151.219,209.93000793457
151.227,157.950012207031
151.237,36.6100006103516
151.247,-33.6300010681152
151.257,-65.9400024414062
151.267,-117.42000579834
151.277,-123.020004272461
151.287,-60.5800018310547
151.297,-41.7500038146973
151.307,-30.1700019836426
151.317,-49.7700004577637
151.327,-63.8400039672852
151.337,-14.1000003814697
151.347,-1.36000001430511
151.357,-15.9900007247925
151.367,-39.6500015258789
151.377,-30.730001449585
151.387,8.96000003814697
151.397,31.0100021362305
151.407,48.1900024414062
151.417,90.8600006103516
151.421,-38.0800018310547
151.431,-107.800003051758
151.441,-158.690002441406
151.451,-198.620010375977
151.461,-231.940017700195
151.471,-227.710006713867
151.481,-218.750015258789
151.491,-157.570007324219
151.501,-57.8200035095215
151.511,-2.94000005722046
151.521,13.0200004577637
151.531,14.9400005340576
151.541,74.5800018310547
151.551,84.5900039672852
151.561,40.3200035095215
151.571,-10.2200002670288
151.58,-41.3000030517578
151.59,-60.930004119873
151.6,-35.3500022888184
151.61,34.370002746582
151.62,73.8800048828125
151.63,88.7900009155273
151.64,57.5700035095215
151.65,12.4900007247925
151.66,-26.6000003814697
151.67,-44.9700012207031
151.68,9.48000049591064
151.69,-4.83000040054321
151.7,-8.40000057220459
151.71,29.3300018310547
151.72,71.0100021362305
151.73,91.5200042724609
151.74,142.800003051758
151.75,114.130004882812
151.76,82.5600051879883
151.77,75.6700057983398
151.778,76.6100006103516
151.788,72.5900039672852
151.798,62.120002746582
151.808,15.1200008392334
151.818,7.73000049591064
151.828,24.3600006103516
151.838,2.94000005722046
151.848,-23.8000011444092
151.858,-2.62000012397766
151.868,3.22000026702881
151.878,-9.73000049591064
151.888,-24.8500003814697
151.898,-34.3000030517578
151.908,-35.6300010681152
151.918,-12.1100006103516
151.928,14.2400007247925
151.938,18.2700004577637
151.948,-29.3300018310547
151.958,-36.5
151.968,-1.19000005722046
151.977,32.2700004577637
151.987,47.9800033569336
151.997,9.34000015258789
152.007,-32.4800033569336
152.017,-25.6900005340576
152.027,20.7900009155273
152.037,7.00000047683716
152.047,15.7100009918213
152.057,17.8800010681152
152.067,-1.05000007152557
152.077,20.3000011444092
152.087,57.3600044250488
152.097,54.5300025939941
152.107,13.6800003051758
152.117,-0.0700000002980232
152.127,6.6100001335144
152.137,-41.370002746582
152.147,-70.6300048828125
152.157,-35.8000030517578
152.167,9.20000076293945
152.172,88.7200012207031
152.182,58.4500045776367
152.192,27.1900005340576
152.202,41.4000015258789
152.212,10.5000009536743
152.222,12.4600009918213
152.232,72.9700012207031
152.242,96.4900054931641
152.252,70.5200042724609
152.262,44.870002746582
152.272,-5.63000011444092
152.282,-27.4400005340576
152.292,17.4300003051758
152.302,-16.6200008392334
152.312,12.6000003814697
152.322,-15.1500005722046
152.33,-65.2000045776367
152.34,-44.2000007629395
152.35,-15.6400003433228
152.36,63.2100028991699
152.37,93.7300033569336
152.38,84.2800064086914
152.39,32.9000015258789
152.4,25.4400005340576
152.41,10.3200006484985
152.42,17.9200000762939
152.43,-35.7700004577637
152.44,-102.720001220703
152.45,-114.450004577637
152.46,-69.2600021362305
152.47,10.0400009155273
152.48,57.2900009155273
152.49,89.1100006103516
152.5,21.1700000762939
152.51,5.32000017166138
152.52,65.2000045776367
152.528,92.1500015258789
152.538,62.0200042724609
152.548,93.0600051879883
152.558,83.2600021362305
152.568,35.8400001525879
152.578,-30.4500007629395
152.588,-17.0799999237061
152.598,-59.1500015258789
152.608,-155.780014038086
152.618,-139.470001220703
152.628,-161.560012817383
152.638,-106.220008850098
152.648,-64.4700012207031
152.658,14.2100009918213
152.668,94.8100051879883
152.678,130.93000793457
152.688,163.380004882812
152.698,169.960006713867
152.708,182.560012817383
152.718,187.530014038086
152.727,129.290008544922
152.737,-0.100000001490116
152.747,-91.7700042724609
152.757,-160.890014648438
152.767,-131.670013427734
152.777,-129.850006103516
152.787,-127.120002746582
152.797,-101.92000579834
152.807,-76.2300033569336
152.817,36.1500015258789
152.827,68.8400039672852
152.837,90.1900024414062
152.847,96.5600051879883
152.857,103.560005187988
152.867,92.9600067138672
152.877,93.5900039672852
152.887,81.4400024414062
152.897,52.0400009155273
152.907,35.9099998474121
152.917,-6.65000009536743
152.921,-37.2400016784668
152.931,-16.8000011444092
152.941,-6.16000032424927
152.951,-18.3000011444092
152.961,-19.1100006103516
152.971,-12.7400007247925
152.981,-17.0799999237061
152.991,-20.4400005340576
153.001,-15.2200002670288
153.011,-22.7800006866455
153.021,-22.6400012969971
153.031,-10.9200000762939
153.041,0.770000040531158
153.051,4.83000040054321
153.061,9.3100004196167
153.071,5.67000007629395
153.08,-6.54000043869019
153.09,-2.69000005722046
153.1,7.87000036239624
153.11,5.21000003814697
153.12,3.46000027656555
153.13,15.6100006103516
153.14,25.060001373291
153.15,25.9700012207031
153.16,34.6100006103516
153.17,36.4000015258789
153.18,18.7600002288818
153.19,25.1300010681152
153.2,28.5900020599365
153.21,10.8100004196167
153.22,0.730000019073486
153.23,-0.800000011920929
153.24,-13.5400009155273
153.25,-25.480001449585
153.26,-22.7800006866455
153.27,-26.1800003051758
153.278,-37.1000022888184
153.288,-26.560001373291
153.298,-20.4700012207031
153.308,-19.4200000762939
153.318,0.800000011920929
153.328,15.9900007247925
153.338,13.3300008773804
153.348,22.9900016784668
153.358,37.4500007629395
153.368,31.2200012207031
153.378,24.3900012969971
153.388,25.230001449585
153.398,10.6700000762939
153.408,-2.66000008583069
153.418,3.25000023841858
153.428,-1.4300000667572
153.438,-4.01999998092651
153.448,8.57000064849854
153.458,14.7700004577637
153.468,13.6800003051758
153.477,25.7900009155273
153.487,25.6200008392334
153.497,9.17000007629395
153.507,9.76000022888184
153.517,7.1700005531311
153.527,-9.3100004196167
153.537,-15.0500011444092
153.547,-6.54000043869019
153.557,-6.6100001335144
153.567,-1.26000010967255
153.577,2.34000015258789
153.587,5.49000024795532
153.597,11.9300003051758
153.607,13.4700002670288
153.617,0.350000023841858
153.627,-11.9000005722046
153.637,-12.8400001525879
153.647,-21.1000003814697
153.657,-23.1700019836426
153.667,-4.0600004196167
153.672,24.6400012969971
153.682,20.1600017547607
153.692,3.04000020027161
153.702,-17.5300006866455
153.712,-21.9100017547607
153.722,-28.8400020599365
153.732,-38.4600028991699
153.742,-19.0700016021729
153.752,-4.01999998092651
153.762,3.08000016212463
153.772,19.980001449585
153.782,34.9600028991699
153.792,33.7400016784668
153.802,30.6600017547607
153.812,29.6800022125244
153.822,17.1800003051758
153.83,-0.520000040531158
153.84,-4.0600004196167
153.85,-4.93000030517578
153.86,-11.0900001525879
153.87,1.19000005722046
153.88,18.3400001525879
153.89,22.6100006103516
153.9,24.0400009155273
153.91,27.9600009918213
153.92,18.8600006103516
153.93,3.92000007629395
153.94,-1.19000005722046
153.95,-14.2100009918213
153.96,-35.3500022888184
153.97,-33.7000007629395
153.98,-21.5900001525879
153.99,-14.5900011062622
154,-5.14000034332275
154.01,15.3300008773804
154.02,22.1500015258789
154.028,19.8400001525879
154.038,20.0500011444092
154.048,17.1500015258789
154.058,-0.560000002384186
154.068,-10.3600006103516
154.078,-6.16000032424927
154.088,-22.2200012207031
154.098,-43.0100021362305
154.108,-37.2700004577637
154.118,-17.7400016784668
154.128,-18.5800018310547
154.138,-30.4100017547607
154.148,-12.6300010681152
154.158,4.62000036239624
154.168,-23.2700004577637
154.178,-27.8600006103516
154.188,-13.5100002288818
154.198,0.730000019073486
154.208,-7.00000047683716
154.218,7.77000045776367
154.227,18.7200012207031
154.237,41.7900009155273
154.247,66.4300003051758
154.257,66.1500015258789
154.267,62.2600021362305
154.277,36.5700035095215
154.287,19.8800010681152
154.297,15.1200008392334
154.307,-11.0200004577637
154.317,-19.7700004577637
154.327,-16.1300010681152
154.337,4.69000005722046
154.347,15.7100009918213
154.357,22.6400012969971
154.367,29.0800018310547
154.377,33.0400009155273
154.387,13.8600006103516
154.397,-0.700000047683716
154.407,-13.7900009155273
154.417,-28.2100009918213
154.421,-8.1200008392334
154.431,18.480001449585
154.441,37.1300010681152
154.451,49.9100036621094
154.461,78.8500061035156
154.471,105.140007019043
154.481,98.6300048828125
154.491,80.0400009155273
154.501,74.7900009155273
154.511,68.140007019043
154.521,47.1100006103516
154.531,19.8800010681152
154.541,15.3600006103516
154.551,16.730001449585
154.561,21.8000011444092
154.571,12.0400009155273
154.58,26.5300006866455
154.59,33.3900032043457
154.6,23.8300018310547
154.61,1.78000009059906
154.62,-4.72000026702881
154.63,-1.47000002861023
154.64,-6.75000047683716
154.65,-24.2200012207031
154.66,-25.9000015258789
154.67,-9.69000053405762
154.68,4.8600001335144
154.69,2.13000011444092
154.7,-6.47000026702881
154.71,-22.0800018310547
154.72,-43.6100006103516
154.73,-59.0400009155273
154.74,-74.0600051879883
154.75,-83.5400009155273
154.76,-91.5900039672852
154.77,-82.4600067138672
154.778,-86.2700042724609
154.788,-70.4500045776367
154.798,-62.680004119873
154.808,-61.6700019836426
154.818,-44.5500030517578
154.828,-12.4200010299683
154.838,17.9900016784668
154.848,19.1800003051758
154.858,17.5700016021729
154.868,39.8600006103516
154.878,42.9100036621094
154.888,40.4900016784668
154.898,27.0900020599365
154.908,25.6200008392334
154.918,36.7800025939941
154.928,30.0300006866455
154.938,11.0900001525879
154.948,3.15000009536743
154.958,14.1000003814697
154.968,13.3000001907349
154.977,-12.0000009536743
154.987,-27.0900020599365
154.997,-23.9700012207031
155.007,-12.4200010299683
155.017,-26.3500003814697
155.027,-40
155.037,-41.8600006103516
155.047,-24.7400016784668
155.057,-9.34000015258789
155.067,-6.30000019073486
155.077,-10.710000038147
155.087,0.0700000002980232
155.097,4.76000022888184
155.107,-12.9100008010864
155.117,-41.0500030517578
155.127,-61.8800010681152
155.137,-72.3800048828125
155.147,-79.1000061035156
155.157,-79.2700042724609
155.167,-71.0100021362305
155.171,-3.67000007629395
155.181,-4.30000019073486
155.191,-13.5100002288818
155.201,-31.6000022888184
155.211,-57.0500030517578
155.221,-73.0100021362305
155.231,-87.390007019043
155.241,-100.060005187988
155.251,-116.230003356934
155.261,-134.570007324219
155.271,-117.000007629395
155.281,-100.100006103516
155.291,-85.8500061035156
155.301,-80.4300003051758
155.311,-99.5400009155273
155.321,-118.540008544922
155.329,-137.970001220703
155.339,-163.270004272461
155.349,-199.880004882812
155.359,-236.740005493164
155.369,-240.450012207031
155.379,-212.620010375977
155.389,-179.300003051758
155.399,-137.620010375977
155.409,-92.0500030517578
155.419,-33.810001373291
155.429,14.0300006866455
155.439,40.560001373291
155.449,35.1700019836426
155.459,14.5900011062622
155.469,-3.1100001335144
155.479,-13.1200008392334
155.489,-19.980001449585
155.499,-34.3300018310547
155.509,-43.2200012207031
155.519,-53.7600021362305
155.528,-58.3800010681152
155.538,-54.9800033569336
155.548,-55.370002746582
155.558,-64.0500030517578
155.568,-74.0900039672852
155.578,-75.7400054931641
155.588,-62.3300018310547
155.598,-57.3300018310547
155.608,-59.7800025939941
155.618,-71.0800018310547
155.628,-68.1100006103516
155.638,-58.1700019836426
155.648,-36.4300003051758
155.658,-25.230001449585
155.668,-14.1400003433228
155.678,-14.1000003814697
155.688,1.75000011920929
155.698,-1.78000009059906
155.708,-8.05000019073486
155.718,-25.3000011444092
155.727,-35.2800025939941
155.737,-37.0300025939941
155.747,-37.5900001525879
155.757,-40.5300025939941
155.767,-48.3000030517578
155.777,-51.1300010681152
155.787,-52.6700019836426
155.797,-38.9900016784668
155.807,-20.1900005340576
155.817,10.1800003051758
155.827,39.2300033569336
155.837,66.4600067138672
155.847,85.8200073242188
155.857,106.01000213623
155.867,128.970001220703
155.877,154.980010986328
155.887,176.540008544922
155.897,182.560012817383
155.907,177.940002441406
155.917,169.640014648438
155.921,-18.0200004577637
155.931,-36.2900009155273
155.941,-40.9100036621094
155.951,-18.5800018310547
155.961,40.1100006103516
155.971,89.6000061035156
155.981,144.440002441406
155.991,170.100006103516
156.001,198.480010986328
156.011,206.390014648438
156.021,196.140014648438
156.031,170.450012207031
156.041,100.130004882812
156.051,22.1900005340576
156.061,-39.620002746582
156.071,-111.020004272461
156.079,-159.070007324219
156.089,-172.130004882812
156.099,-159.810012817383
156.109,-120.820007324219
156.119,-59.2200012207031
156.129,-13.4700002670288
156.139,-3.99000024795532
156.149,-5.98000049591064
156.159,-28.9400005340576
156.169,-61.6000022888184
156.179,-94.4600067138672
156.189,-135.830001831055
156.199,-173.810012817383
156.209,-180.280014038086
156.219,-161.450012207031
156.229,-119.560005187988
156.239,-66.0800018310547
156.249,-7.52000045776367
156.259,41.7500038146973
156.269,78.2200012207031
156.278,113.360008239746
156.288,129.740005493164
156.298,118.050003051758
156.308,90.3300018310547
156.318,53.2000007629395
156.328,17.7400016784668
156.338,5.28000020980835
156.348,-11.2300004959106
156.358,-24.1500015258789
156.368,-19.9500007629395
156.378,-9.59000015258789
156.388,9.48000049591064
156.398,29.7100009918213
156.408,28.0000019073486
156.418,17.9900016784668
156.428,12.5600004196167
156.438,15.0500011444092
156.448,-1.00999999046326
156.458,-21.8000011444092
156.468,-43.8200035095215
156.477,-61.0400047302246
156.487,-74.7600021362305
156.497,-79.1300048828125
156.507,-97.7500076293945
156.517,-109.790008544922
156.527,-100.480003356934
156.537,-100.970001220703
156.547,-117.000007629395
156.557,-135.100006103516
156.567,-152.740005493164
156.577,-148.68000793457
156.587,-143.150009155273
156.597,-141.400009155273
156.607,-140.940002441406
156.617,-132.400009155273
156.627,-109.580001831055
156.637,-53.3000030517578
156.647,-3.1800000667572
156.657,32.1300010681152
156.667,61.1100044250488
156.671,13.9600009918213
156.681,-6.72000026702881
156.691,-30.5500011444092
156.701,-55.6100044250488
156.711,-73.390007019043
156.721,-82.2500076293945
156.731,-85.7500076293945
156.741,-76.890007019043
156.751,-73.0800018310547
156.761,-73.6700057983398
156.771,-72.4100036621094
156.781,-64.5699996948242
156.791,-43.9900016784668
156.801,-16.310001373291
156.811,2.34000015258789
156.821,17.9900016784668
156.829,31.7400016784668
156.839,42.5900001525879
156.849,47.2100028991699
156.859,35.6300010681152
156.869,7.80000019073486
156.879,-30.1700019836426
156.889,-62.1600036621094
156.899,-84.5600051879883
156.909,-91.0300064086914
156.919,-97.5100021362305
156.929,-84.7000045776367
156.939,-52.0100021362305
156.949,-12.5300006866455
156.959,16.8700008392334
156.969,22.9200019836426
156.979,19.6300010681152
156.989,24.810001373291
156.999,22.5400009155273
157.009,22.6400012969971
157.019,26.0000019073486
157.028,31.6400012969971
157.038,47.9800033569336
157.048,80.5300064086914
157.058,100.550003051758
157.068,106.330001831055
157.078,95.3000030517578
157.088,69.9600067138672
157.098,32.9300003051758
157.108,-9.76000022888184
157.118,-55.5800018310547
157.128,-95.5500030517578
157.138,-129.43000793457
157.148,-154.030014038086
157.158,-153.510009765625
157.168,-134.820007324219
157.178,-99.4300079345703
157.188,-53.3000030517578
157.198,-11.0600004196167
157.208,18.6200008392334
157.218,47.9800033569336
157.227,69.3300018310547
157.237,64.4300003051758
157.247,44.0300025939941
157.257,15.6400003433228
157.267,-3.01000022888184
157.277,-9.69000053405762
157.287,-3.1100001335144
157.297,8.22000026702881
157.307,22.2200012207031
157.317,27.6100006103516
157.327,28.7700004577637
157.337,12.2800006866455
157.347,-21.0700016021729
157.357,-73.6000061035156
157.367,-128.970001220703
157.377,-156.100006103516
157.387,-170.060012817383
157.397,-175.730010986328
157.407,-160.93000793457
157.417,-119.590003967285
157.421,43.2900009155273
157.431,31.2200012207031
157.441,18.9700012207031
157.451,17.6000003814697
157.461,26.2800006866455
157.471,18.3400001525879
157.481,10.5000009536743
157.491,19.0400009155273
157.501,42.3500022888184
157.511,61.0700035095215
157.521,70.6600036621094
157.531,53.7600021362305
157.541,36.7800025939941
157.551,37.6600036621094
157.561,35.7000007629395
157.571,21.980001449585
157.579,7.45000028610229
157.589,-1.12000000476837
157.599,3.29000020027161
157.609,26.9500007629395
157.619,45.9900016784668
157.629,51.2700042724609
157.639,50.2900009155273
157.649,54.7400016784668
157.659,58.3400039672852
157.669,45.9500007629395
157.679,14.5200004577637
157.689,-15.9900007247925
157.699,-29.6400012969971
157.709,-35.6599998474121
157.719,-37.3800010681152
157.729,-42.6300010681152
157.739,-34.6100006103516
157.749,-16.060001373291
157.759,0.840000033378601
157.769,10.460000038147
157.778,7.52000045776367
157.788,3.92000007629395
157.798,-4.34000015258789
157.808,-28.9100017547607
157.818,-57.8900032043457
157.828,-78.4700012207031
157.838,-93.8300018310547
157.848,-94.7100067138672
157.858,-95.620002746582
157.868,-86.2000045776367
157.878,-60.2700042724609
157.888,-26.2500019073486
157.898,11.8600006103516
157.908,30.0300006866455
157.918,28.6600017547607
157.928,37.870002746582
157.938,46.5500030517578
157.948,44.8300018310547
157.958,45.9900016784668
157.968,37.4100036621094
157.977,43.7100028991699
157.987,50.2200012207031
157.997,37.8000030517578
158.007,20.7900009155273
158.017,-4.16000032424927
158.027,-22.2900009155273
158.037,-45.5000038146973
158.047,-59.2900009155273
158.057,-91.2100067138672
158.067,-119.910003662109
158.077,-99.6800079345703
158.087,-78.1500015258789
158.097,-58.060001373291
158.107,-36.2900009155273
158.117,-8.53999996185303
158.127,24.0100002288818
158.137,46.3000030517578
158.147,45.9900016784668
158.157,18.9700012207031
158.167,1.12000000476837
158.171,-15.4300003051758
158.181,11.1300001144409
158.191,35.2100028991699
158.201,31.2900009155273
158.211,31.4600009918213
158.221,39.9700012207031
158.231,14.5600004196167
158.241,-31.1500015258789
158.251,-65.2400054931641
158.261,-80.5300064086914
158.271,-102.410003662109
158.281,-115.390007019043
158.291,-115.990005493164
158.301,-85.4300003051758
158.311,-19.3500003814697
158.321,23.8700008392334
158.329,53.620002746582
158.339,82.7000045776367
158.349,93.2000045776367
158.359,78.3600006103516
158.369,42.7300033569336
158.379,2.34000015258789
158.389,-22.4000015258789
158.399,-24.6400012969971
158.409,-31.7100009918213
158.419,-45.1500015258789
158.429,-38.4300003051758
158.439,-20.1900005340576
158.449,-18.480001449585
158.459,-17.2200012207031
158.469,-8.1200008392334
158.479,-5.21000003814697
158.489,-4.8600001335144
158.499,-18.8300018310547
158.509,-12.1100006103516
158.519,2.24000000953674
158.528,-2.66000008583069
158.538,-9.69000053405762
158.548,-15.2200002670288
158.558,-4.48000001907349
158.568,2.52000021934509
158.578,-17.25
158.588,-26.1400012969971
158.598,-15.8200006484985
158.608,-11.2300004959106
158.618,-16.6599998474121
158.628,-42.5900001525879
158.638,-49.3500022888184
158.648,-42.6600036621094
158.658,-29.8500022888184
158.668,-27.8600006103516
158.678,-7.66000032424927
158.688,17.8800010681152
158.698,31.6400012969971
158.708,28.6600017547607
158.718,35.3500022888184
158.727,30.1300010681152
158.737,10.6000003814697
158.747,-24.810001373291
158.757,-36.3600006103516
158.767,-30.1000022888184
158.777,-27.2600021362305
158.787,-22.1500015258789
158.797,-13.5100002288818
158.807,2.17000007629395
158.817,25.1300010681152
158.827,25.5100021362305
158.837,36.0500030517578
158.847,49.2400016784668
158.857,51.9400024414062
158.867,48.0500030517578
158.877,47.2500038146973
158.887,34.3000030517578
158.897,13.6800003051758
158.907,-2.24000000953674
158.917,10.5300006866455
158.921,-7.98000049591064
158.931,8.75
158.941,10.8500003814697
158.951,36.9600028991699
158.961,58.1300010681152
158.971,50.9200019836426
158.981,44.9400024414062
158.991,27.5800018310547
159.001,-10.710000038147
159.011,-36.5700035095215
159.021,-47.4200019836426
159.031,-37.3400001525879
159.041,-29.4000015258789
159.051,-23.730001449585
159.061,-4.26999998092651
159.071,11.9300003051758
159.079,-1.71000003814697
159.089,-13.6100006103516
159.099,-9.8700008392334
159.109,-13.0900001525879
159.119,-23.310001373291
159.129,-10.2500009536743
159.139,10.7800006866455
159.149,12.4200010299683
159.159,8.61000061035156
159.169,11.8600006103516
159.179,16.6900005340576
159.189,4.55000019073486
159.199,-2.45000004768372
159.209,6.40000009536743
159.219,9.41000080108643
159.229,1.54000008106232
159.239,7.03000020980835
159.249,16.6900005340576
159.259,21.6600017547607
159.269,18.9000015258789
159.278,19.8400001525879
159.288,28.4900016784668
159.298,16.0300006866455
159.308,6.33000040054321
159.318,13.0500001907349
159.328,4.72000026702881
159.338,-17.9900016784668
159.348,-11.0900001525879
159.358,5.95000028610229
159.368,0.700000047683716
159.378,1.40000009536743
159.388,23.7600002288818
159.398,28.4500007629395
159.408,4.44000005722046
159.418,-10.3600006103516
159.428,-8.71000003814697
159.438,-23.1300010681152
159.448,-35.560001373291
159.458,-19.7700004577637
159.468,1.15000009536743
159.473,20.5800018310547
159.483,32.5800018310547
159.493,39.9300003051758
159.503,35.1400032043457
159.513,30.5200023651123
159.523,30.480001449585
159.533,16.7600002288818
159.543,-1.82000005245209
159.553,-4.37000036239624
159.563,-5.21000003814697
159.573,-10.4300003051758
159.583,-6.68000030517578
159.593,-2.66000008583069
159.603,-7.24000024795532
159.613,0.520000040531158
159.623,24.2500019073486
159.63,34.6500015258789
159.64,40.9500007629395
159.65,35.4200019836426
159.66,23.4500007629395
159.67,24.5300006866455
159.68,36.8200035095215
159.69,40.8400001525879
159.7,26.6700019836426
159.71,25.8600006103516
159.72,30.8300018310547
159.73,35.560001373291
159.74,32.2300033569336
159.75,18.7900009155273
159.76,7.07000017166138
159.77,8.89000034332275
159.78,18.7900009155273
159.79,31.9900016784668
159.8,40.9100036621094
159.81,37.4100036621094
159.82,32.8600006103516
159.829,47.4600028991699
159.839,47.7000007629395
159.849,27.4700012207031
159.859,17.4600009918213
159.869,28.1000003814697
159.879,49.2100028991699
159.889,63.1700019836426
159.899,78.8500061035156
159.909,86.7300033569336
159.919,84.5600051879883
159.929,97.370002746582
159.939,110.210006713867
159.949,100.270004272461
159.959,93.870002746582
159.969,98.0000076293945
159.979,97.8600082397461
159.989,84.3100051879883
159.999,74.620002746582
160.009,66.3600006103516
160.019,18.5100002288818
160.028,-9.13000011444092
160.038,0.310000002384186
160.048,0.350000023841858
160.058,-5.1100001335144
160.068,12.7000007629395
160.078,9.0600004196167
160.088,-19.4900016784668
160.098,-32.7900009155273
160.108,-62.930004119873
160.118,-83.8600006103516
160.128,-73.7800064086914
160.138,-70.5900039672852
160.148,-73.7800064086914
160.158,-65.1300048828125
160.168,-59.1500015258789
160.178,-41.7900009155273
160.188,-27.9600009918213
160.198,-35.1400032043457
160.208,-54.0400009155273
160.218,-39.9300003051758
160.223,-5.5600004196167
160.233,-4.93000030517578
160.243,-11.9000005722046
160.253,-37.060001373291
160.263,-40.2500038146973
160.273,-39.9300003051758
160.283,-48.0200004577637
160.293,-35.9800033569336
160.303,2.76000022888184
160.313,19.8400001525879
160.323,30.6900005340576
160.333,42.8000030517578
160.343,40.0700035095215
160.353,37.5900001525879
160.363,45.7100028991699
160.373,26.810001373291
160.38,12.0700006484985
160.39,9.52000045776367
160.4,16.9400005340576
160.41,47.0700035095215
160.42,87.1100006103516
160.43,138.110000610352
160.44,183.080001831055
160.45,232.750015258789
160.46,273.77001953125
160.47,286.610015869141
160.48,277.620025634766
160.49,274.290008544922
160.5,252.280014038086
160.51,200.720016479492
160.52,178.460006713867
160.53,175.380004882812
160.54,147.380004882812
160.55,136.710006713867
160.56,150.810012817383
160.57,124.210006713867
160.579,95.5800018310547
160.589,84.9400024414062
160.599,58.1700019836426
160.609,23.2000007629395
160.619,3.74000024795532
160.629,-40.8800010681152
160.639,-100.900001525879
160.649,-133.240005493164
160.659,-152.040008544922
160.669,-165.900009155273
160.679,-158.720001220703
160.689,-121.970008850098
160.699,-84.7000045776367
160.709,-33.4200019836426
160.719,25.0900020599365
160.729,54.7700042724609
160.739,66.3199996948242
160.749,84.1000061035156
160.759,77.0300064086914
160.769,45.3200035095215
160.778,2.73000001907349
160.788,-24.5000019073486
160.798,-58.5900039672852
160.808,-88.3400039672852
160.818,-120.850006103516
160.828,-145.18000793457
160.838,-146.510009765625
160.848,-130.300003051758
160.858,-107.590003967285
160.868,-83.6500015258789
160.878,-57.680004119873
160.888,-41.7500038146973
160.898,-32.9700012207031
160.908,-20.2600002288818
160.918,-10.6700000762939
160.928,12.2100009918213
160.938,39.2000007629395
160.948,57.5000038146973
160.958,79.9000015258789
160.968,119.030006408691
160.973,67.5500030517578
160.983,16.0300006866455
160.993,-46.5800018310547
161.003,-97.370002746582
161.013,-138.600006103516
161.023,-156.240005493164
161.033,-161.070007324219
161.043,-153.890014648438
161.053,-134.850006103516
161.063,-104.720001220703
161.073,-66.8500061035156
161.083,-28.2400016784668
161.093,15.0800008773804
161.103,47.1100006103516
161.113,62.1900024414062
161.123,55.3300018310547
161.13,69.8600006103516
161.14,68.2100067138672
161.15,50.6400032043457
161.16,34.120002746582
161.17,24.7800006866455
161.18,26.3200016021729
161.19,23.9400005340576
161.2,15.3300008773804
161.21,13.3300008773804
161.22,2.76000022888184
161.23,5.95000028610229
161.24,31.0800018310547
161.25,30.4500007629395
161.26,29.2200012207031
161.27,36.8500022888184
161.28,52.7800025939941
161.29,67.0600051879883
161.3,80.5000076293945
161.31,88.2700042724609
161.32,111.540008544922
161.329,142.130004882812
161.339,158.09001159668
161.349,173.490005493164
161.359,193.760009765625
161.369,201.280014038086
161.379,198.550003051758
161.389,207.760009765625
161.399,193.900009155273
161.409,171.150009155273
161.419,152.770004272461
161.429,131.460006713867
161.439,102.370002746582
161.449,70.4500045776367
161.459,44.2700004577637
161.469,32.7600021362305
161.479,11.2700004577637
161.489,-9.76000022888184
161.499,-43.9200019836426
161.509,-64.0100021362305
161.519,-63.9400024414062
161.528,-80.9900054931641
161.538,-95.0900039672852
161.548,-85.8500061035156
161.558,-84.9100036621094
161.568,-83.3300018310547
161.578,-63.5200042724609
161.588,-59.6400032043457
161.598,-58.1300010681152
161.608,-30.7600021362305
161.618,-50.7500038146973
161.628,-49.7000007629395
161.638,-58.1000022888184
161.648,-55.120002746582
161.658,-56.9800033569336
161.668,-60.7600021362305
161.678,-84.7000045776367
161.688,-78.7100067138672
161.698,-64.0800018310547
161.708,-22.9200019836426
161.718,9.76000022888184
161.723,107.590003967285
161.733,113.43000793457
161.743,117.700004577637
161.753,92.7100067138672
161.763,43.120002746582
161.773,-14.7000007629395
161.783,-38.2900009155273
161.793,-54.6300010681152
161.803,-56.1000022888184
161.813,-71.5400009155273
161.823,-92.0800018310547
161.833,-97.9600067138672
161.843,-88.7200012207031
161.853,-78.0100021362305
161.863,-42.9100036621094
161.873,-16.5500011444092
161.88,-4.26999998092651
161.89,3.22000026702881
161.9,21.560001373291
161.91,36.8500022888184
161.92,38.5
161.93,24.6700019836426
161.94,7.63000059127808
161.95,-24.4600009918213
161.96,-65.9000015258789
161.97,-114.870002746582
161.98,-142.100006103516
161.99,-165.510009765625
162,-176.330001831055
162.01,-138.560012817383
162.02,-62.3000030517578
162.03,22.7100009918213
162.04,77.7300033569336
162.05,126.840003967285
162.06,187.040008544922
162.07,234.740005493164
162.079,249.020004272461
162.089,232.120010375977
162.099,226.240005493164
162.109,229.530014038086
162.119,236.250015258789
162.129,230.820007324219
162.139,235.900009155273
162.149,226.480010986328
162.159,207.510009765625
162.169,184.550003051758
162.179,193.550003051758
162.189,184.550003051758
162.199,181.720001220703
162.209,180.420013427734
162.219,186.720016479492
162.229,172.200012207031
162.239,140.380004882812
162.249,79.2000045776367
162.259,4.72000026702881
162.269,-41.9600028991699
162.278,-62.1900024414062
162.288,-78.7800064086914
162.298,-74.8600006103516
162.308,-49.1400032043457
162.318,-46.5100021362305
162.328,-30.4500007629395
162.338,-9.03000068664551
162.348,-31.2900009155273
162.358,-43.9200019836426
162.368,-27.2600021362305
162.378,-25.5500011444092
162.388,-44.5900039672852
162.398,-65.3800048828125
162.408,-65.5500030517578
162.418,-45.6700019836426
162.428,-14.5900011062622
162.438,-5.70000028610229
162.448,26.0700016021729
162.458,60.5100021362305
162.468,81.0900039672852
162.473,22.8200016021729
162.483,1.4300000667572
162.493,-23.5200004577637
162.503,-28.730001449585
162.513,7.5600004196167
162.523,47.4200019836426
162.533,64.7800064086914
162.543,87.7100067138672
162.553,93.1300048828125
162.563,94.4300079345703
162.573,90.2600021362305
162.583,74.9700012207031
162.593,50.0500030517578
162.603,-7.00000047683716
162.613,-80.0800018310547
162.623,-97.0900039672852
162.63,-106.220008850098
162.64,-131.040008544922
162.65,-156.480010986328
162.66,-154.520004272461
162.67,-137.480010986328
162.68,-94.8100051879883
162.69,-53.060001373291
162.7,-12.4900007247925
162.71,1.96000003814697
162.72,21.310001373291
162.73,46.0200004577637
162.74,67.4100036621094
162.75,72.620002746582
162.76,73.0400009155273
162.77,84.9400024414062
162.78,97.5400009155273
162.79,110.040008544922
162.8,131.279998779297
162.81,147.520004272461
162.82,157.710006713867
162.829,171.010009765625
162.839,172.790008544922
162.849,156.59001159668
162.859,127.050003051758
162.869,91.140007019043
162.879,52.3200035095215
162.889,15.7500009536743
162.899,-12.6000003814697
162.909,-18.9700012207031
162.919,-25.8600006103516
162.929,-30.9000015258789
162.939,-18.5100002288818
162.949,-7.14000034332275
162.959,-8.28999996185303
162.969,-9.45000076293945
162.979,-2.31000018119812
162.989,-6.6100001335144
162.999,-10.8800001144409
163.009,-9.45000076293945
163.019,-28.8400020599365
163.028,-54.180004119873
163.038,-58.2000045776367
163.048,-56.7300033569336
163.058,-50.0500030517578
163.068,-31.0100021362305
163.078,3.64000010490417
163.088,46.6500015258789
163.098,98.4900054931641
163.108,139.860000610352
163.118,161.030014038086
163.128,185.950012207031
163.138,191.34001159668
163.148,187.770004272461
163.158,137.160003662109
163.168,74.6500015258789
163.178,17.6700000762939
163.188,-16.7600002288818
163.198,-52.3900032043457
163.208,-119.450004577637
163.218,-170.480010986328
163.223,-70.2800064086914
163.233,-22.8900012969971
163.243,33.5300025939941
163.253,62.3300018310547
163.263,63.870002746582
163.273,52.0400009155273
163.283,47.2100028991699
163.293,27.7200012207031
163.303,16.0300006866455
163.313,9.76000022888184
163.323,-7.00000047683716
163.333,-9.55000019073486
163.343,6.58000040054321
163.353,31.6400012969971
163.363,48.8900032043457
163.373,72.9700012207031
163.38,89.8800048828125
163.39,97.3300018310547
163.4,113.850006103516
163.41,123.480003356934
163.42,91.870002746582
163.43,47.0700035095215
163.44,16.2000007629395
163.45,-18.060001373291
163.46,-36.6800003051758
163.47,-25.9700012207031
163.48,-11.1600008010864
163.49,30.8300018310547
163.5,71.75
163.51,97.0900039672852
163.52,94.640007019043
163.53,57.7100028991699
163.54,-16.7600002288818
163.55,-94.0400009155273
163.56,-141.889999389648
163.57,-151.230010986328
163.579,-133.910003662109
163.589,-78.0100021362305
163.599,-26.6000003814697
163.609,25.2700004577637
163.619,68.6700057983398
163.629,93.4500045776367
163.639,114.900009155273
163.649,109.620002746582
163.659,90.4000015258789
163.669,66.7800064086914
163.679,31.9900016784668
163.689,14.2800006866455
163.699,7.77000045776367
163.709,-20.9600009918213
163.719,-42.870002746582
163.729,-49.2400016784668
163.739,-29.7500019073486
163.749,-23.9400005340576
163.759,-5.49000024795532
163.769,10.9500007629395
163.777,25.9300003051758
163.787,69.4400024414062
163.797,86.0600051879883
163.807,79.4800033569336
163.817,59.4600028991699
163.827,32.6900024414062
163.837,18.230001449585
163.847,4.01999998092651
163.857,-5.39000034332275
163.867,-11.9000005722046
163.877,-10.8100004196167
163.887,3.4300000667572
163.897,6.05000019073486
163.907,4.16000032424927
163.917,5.67000007629395
163.927,1.64000010490417
163.937,3.81000018119812
163.947,3.32000017166138
163.957,-2.03000020980835
163.967,-10.0400009155273
163.971,35.7700004577637
163.981,38.5
163.991,42.1400032043457
164.001,42.3800010681152
164.011,31.2500019073486
164.021,15.6400003433228
164.031,12.4200010299683
164.041,18.0900001525879
164.051,22.8200016021729
164.061,28.730001449585
164.071,19.5300006866455
164.081,6.40000009536743
164.091,1.15000009536743
164.101,-9.90000057220459
164.111,-32.9000015258789
164.121,-45.3900032043457
164.13,-41.2600021362305
164.14,-25.7200012207031
164.15,2.13000011444092
164.16,42.9800033569336
164.17,63.310001373291
164.18,75.7000045776367
164.19,93.7300033569336
164.2,98.1000061035156
164.21,92.4700012207031
164.22,73.1800003051758
164.23,44.4800033569336
164.24,14.2100009918213
164.25,2.34000015258789
164.26,-18.7900009155273
164.27,-46.2000007629395
164.28,-53.060001373291
164.29,-59.6700019836426
164.3,-62.8600044250488
164.31,-42.7300033569336
164.32,-43.6100006103516
164.329,-36.1500015258789
164.339,-13.1200008392334
164.349,3.3600001335144
164.359,14.8700008392334
164.369,30.5200023651123
164.379,43.8900032043457
164.389,42.2800025939941
164.399,43.1900024414062
164.409,30.9000015258789
164.419,7.91000032424927
164.429,-4.09000015258789
164.439,-25.3400020599365
164.449,-44.2700004577637
164.459,-41.4400024414062
164.469,-40.560001373291
164.479,-40.2500038146973
164.489,-33
164.499,-24.8500003814697
164.509,-11.5800008773804
164.519,-6.30000019073486
164.527,-6.19000005722046
164.537,9.90000057220459
164.547,28.9100017547607
164.557,36.9600028991699
164.567,42.4200019836426
164.577,41.7900009155273
164.587,42.8000030517578
164.597,42.2400016784668
164.607,35.7000007629395
164.617,23.4500007629395
164.627,14.9400005340576
164.637,9.3100004196167
164.647,12.4200010299683
164.657,11.3700008392334
164.667,8.75
164.677,18.3700008392334
164.687,16.480001449585
164.697,17.6400012969971
164.707,18.060001373291
164.717,4.20000028610229
164.721,-58.870002746582
164.731,-50.680004119873
164.741,-37.8000030517578
164.751,-15.2600011825562
164.761,-11.5500001907349
164.771,-8.40000057220459
164.781,-3.25000023841858
164.791,-22.3600006103516
164.801,-43.9900016784668
164.811,-47.7700004577637
164.821,-55.8600044250488
164.831,-60.3000030517578
164.841,-47.0700035095215
164.851,-33.4900016784668
164.861,-16.7600002288818
164.871,7.38000011444092
164.88,14.8000011444092
164.89,9.0600004196167
164.9,5.42000007629395
164.91,-17.9900016784668
164.92,-46.4100036621094
164.93,-48.0900039672852
164.94,-61.2800025939941
164.95,-84.6300048828125
164.96,-75.3500061035156
164.97,-58.870002746582
164.98,-51.5500030517578
164.99,-36.4000015258789
165,-30.9400005340576
165.01,-53.620002746582
165.02,-75.7400054931641
165.03,-82.1800003051758
165.04,-102.370002746582
165.05,-123.270004272461
165.06,-110.980003356934
165.07,-80.0400009155273
165.079,-49.0000038146973
165.089,-15.3600006103516
165.099,4.97000026702881
165.109,7.77000045776367
165.119,13.0500001907349
165.129,13.0900001525879
165.139,-11.4800004959106
165.149,-30.4100017547607
165.159,-13.1600008010864
165.169,6.44000053405762
165.179,22.3300018310547
165.189,56.0300025939941
165.199,116.790008544922
165.209,168.660003662109
165.219,207.480010986328
165.229,223.960006713867
165.239,193.270004272461
165.249,132.260009765625
165.259,61.3900032043457
165.269,-17.7400016784668
165.277,-103.810005187988
165.287,-159.950012207031
165.297,-167.860000610352
165.307,-161.660003662109
165.317,-146.960006713867
165.327,-110.560005187988
165.337,-74.8600006103516
165.347,-34.8900032043457
165.357,-7.94000053405762
165.367,13.2600002288818
165.377,12.5300006866455
165.387,5.32000017166138
165.397,12.3900003433228
165.407,16.5200004577637
165.417,4.51000022888184
165.427,4.58000040054321
165.437,28.730001449585
165.447,36.6400032043457
165.457,31.9900016784668
165.467,44.3400039672852
165.471,271.880004882812
165.481,315.870025634766
165.491,363.720031738281
165.501,415.410034179688
165.511,451.810028076172
165.521,480.550018310547
165.531,504.490020751953
165.541,499.970031738281
165.551,462.630035400391
165.561,410.930023193359
165.571,357.070007324219
165.581,297.640014648438
165.591,217.800003051758
165.601,138.980010986328
165.611,76.7900009155273
165.621,40.4600028991699
165.63,23.3800010681152
165.64,4.30000019073486
165.65,-9.66000080108643
165.66,-14.5200004577637
165.67,-22.8900012969971
165.68,-53.9700012207031
165.69,-78.6100006103516
165.7,-102.020004272461
165.71,-133.700012207031
165.72,-161.140014648438
165.73,-192.110015869141
165.74,-213.780014038086
165.75,-228.790008544922
165.76,-235.060012817383
165.77,-226.59001159668
165.78,-211.780014038086
165.79,-190.890014648438
165.8,-192.290008544922
165.81,-181.890014648438
165.82,-176.150009155273
165.829,-192.570007324219
165.839,-216.260009765625
165.849,-227.600006103516
165.859,-223.160003662109
165.869,-216.120010375977
165.879,-210.310012817383
165.889,-184.240005493164
165.899,-121.590003967285
165.909,-45.3600006103516
165.919,18.0200004577637
165.929,60.5800018310547
165.939,91.1700057983398
165.949,122.43000793457
165.959,126.490005493164
165.969,112.840003967285
165.979,86.2000045776367
165.989,65.7600021362305
165.999,63.4500045776367
166.009,69.8199996948242
166.019,79.1300048828125
166.027,98.0300064086914
166.037,144.510009765625
166.047,201.950012207031
166.057,251.190017700195
166.067,279.820007324219
166.077,299.980010986328
166.087,325.290008544922
166.097,337.820007324219
166.107,337.360015869141
166.117,332.950012207031
166.127,320.070007324219
166.137,326.580017089844
166.147,310.760009765625
166.157,272.610015869141
166.167,225.780014038086
166.177,166.810012817383
166.187,102.93000793457
166.197,38.0800018310547
166.207,-39.6500015258789
166.217,-97.0200042724609
166.221,7.45000028610229
166.231,64.4300003051758
166.241,124.000007629395
166.251,168.800003051758
166.261,176.260009765625
166.271,168.560012817383
166.281,141.850006103516
166.291,96.2100067138672
166.301,56.2800025939941
166.311,5.28000020980835
166.321,-39.7600021362305
166.331,-66.9200057983398
166.341,-72.2400054931641
166.351,-72.3100051879883
166.361,-61.2500038146973
166.371,-58.8000030517578
166.38,-45.0800018310547
166.39,-16.3400001525879
166.4,14.1700010299683
166.41,50.680004119873
166.42,77.8000030517578
166.43,85.9200057983398
166.44,105.840003967285
166.45,118.68000793457
166.46,124.630004882812
166.47,127.850006103516
166.48,111.93000793457
166.49,103.250007629395
166.5,101.18000793457
166.51,109.370002746582
166.52,121.870002746582
166.53,138.420013427734
166.54,141.570007324219
166.55,140.240005493164
166.56,127.890007019043
166.57,100.450004577637
166.579,69.9600067138672
166.589,59.8500022888184
166.599,45.3600006103516
166.609,39.0900001525879
166.619,44.310001373291
166.629,53.6500015258789
166.639,86.8000030517578
166.649,113.470008850098
166.659,129.080001831055
166.669,144.970001220703
166.679,136.040008544922
166.689,107.590003967285
166.699,75.25
166.709,51.5900039672852
166.719,27.7900009155273
166.729,11.6900005340576
166.739,-3.81000018119812
166.749,-1.12000000476837
166.759,8.01000022888184
166.769,24.810001373291
166.777,27.6100006103516
166.787,20.5100002288818
166.797,-2.27000021934509
166.807,-13.0200004577637
166.817,-1.12000000476837
166.827,-6.72000026702881
166.837,-18.4400005340576
166.847,-1.6100001335144
166.857,-3.74000024795532
166.867,18.7600002288818
166.877,12.2800006866455
166.887,15.1900005340576
166.897,23.2700004577637
166.907,25.0900020599365
166.917,16.8299999237061
166.927,-33.7000007629395
166.937,-44.4100036621094
166.947,-62.680004119873
166.957,-62.0500030517578
166.967,-59.0400009155273
166.971,68
166.981,68.9500045776367
166.991,36.0500030517578
167.001,48.7900009155273
167.011,1.05000007152557
167.021,-26.810001373291
167.031,-49.2800025939941
167.041,-104.090003967285
167.051,-145.700012207031
167.061,-197.470016479492
167.071,-246.290008544922
167.081,-255.500015258789
167.091,-247.130004882812
167.101,-234.600006103516
167.111,-204.750015258789
167.121,-149.660003662109
167.13,-86.7300033569336
167.14,-22.3300018310547
167.15,37.2400016784668
167.16,85.2600021362305
167.17,140
167.18,195.370010375977
167.19,251.68000793457
167.2,302.640014648438
167.21,331.170013427734
167.22,327.420013427734
167.23,315.800018310547
167.24,300.190002441406
167.25,272.330017089844
167.26,220.810012817383
167.27,153.020004272461
167.28,88.2300033569336
167.29,48.7900009155273
167.3,35.1000022888184
167.31,38.8500022888184
167.32,40.4900016784668
167.329,45.1100006103516
167.339,71.5699996948242
167.349,95.9000015258789
167.359,105.940002441406
167.369,117.980003356934
167.379,120.960006713867
167.389,94.7800064086914
167.399,46.5500030517578
167.409,-11.3700008392334
167.419,-87.8800048828125
167.429,-137.130004882812
167.439,-160.93000793457
167.449,-202.68000793457
167.459,-225.68000793457
167.469,-226.870010375977
167.479,-213.250015258789
167.489,-164.43000793457
167.499,-92.8500061035156
167.509,-42.7000007629395
167.519,-0.0700000002980232
167.527,33.8400001525879
167.537,70.2100067138672
167.547,100.030006408691
167.557,121.800003051758
167.567,116.300003051758
167.577,89.2100067138672
167.587,63.1400032043457
167.597,46.2300033569336
167.607,27.6500015258789
167.617,26.3500003814697
167.627,49.5900039672852
167.637,65.5200042724609
167.647,88.4800033569336
167.657,117.950004577637
167.667,131.670013427734
167.677,149.270004272461
167.687,160.890014648438
167.697,143.670013427734
167.707,104.720001220703
167.717,55.6100044250488
167.721,-198.270004272461
167.731,-214.830017089844
167.741,-214.830017089844
167.751,-189.420013427734
167.761,-146.020004272461
167.771,-114.240005493164
167.781,-96.9500045776367
167.791,-75.6300048828125
167.801,-58.5500030517578
167.811,-24.6400012969971
167.821,15.5400009155273
167.831,52.9500007629395
167.841,88.2300033569336
167.851,117.320007324219
167.861,143.110000610352
167.871,164.780014038086
167.88,180.700012207031
167.89,174.440002441406
167.9,152.280014038086
167.91,129.920013427734
167.92,108.220008850098
167.93,101.67000579834
167.94,107.340003967285
167.95,101.250007629395
167.96,104.050003051758
167.97,111.650001525879
167.98,123.060005187988
167.99,143.150009155273
168,169.610000610352
168.01,169.920013427734
168.02,155.260009765625
168.03,139.790008544922
168.04,124.67000579834
168.05,113.890007019043
168.06,103.250007629395
168.07,71.9900054931641
168.078,46.7600021362305
168.088,27.3000011444092
168.098,16.060001373291
168.108,3.78000020980835
168.118,-18.3000011444092
168.128,-45.4300003051758
168.138,-61.3900032043457
168.148,-62.8900032043457
168.158,-61.7400016784668
168.168,-56.1000022888184
168.178,-64.2200012207031
168.188,-64.2900009155273
168.198,-42.9400024414062
168.208,-21.2800006866455
168.218,-0.630000054836273
168.228,10.8800001144409
168.238,17.25
168.248,29.1200008392334
168.258,36.9600028991699
168.268,47.7700004577637
168.277,50.2200012207031
168.287,36.7800025939941
168.297,33.4900016784668
168.307,35.6300010681152
168.317,41.9300003051758
168.327,49.4900016784668
168.337,37.3400001525879
168.347,15.8500003814697
168.357,3.3600001335144
168.367,-19.7000007629395
168.377,-40.8800010681152
168.387,-60.5800018310547
168.397,-84.9100036621094
168.407,-78.0800018310547
168.417,-48.1900024414062
168.427,-5.95000028610229
168.437,34.7200012207031
168.447,68.0400009155273
168.457,88.4800033569336
168.467,99.5700073242188
168.471,36.6100006103516
168.481,32.9300003051758
168.491,33.1800003051758
168.501,31.2200012207031
168.511,25.3000011444092
168.521,32.7900009155273
168.531,49.7700004577637
168.541,70.7000045776367
168.551,83.3300018310547
168.561,83.4700012207031
168.571,81.8300018310547
168.581,81.2300033569336
168.591,73.8500061035156
168.601,49.2100028991699
168.611,3.29000020027161
168.621,-35.1400032043457
168.63,-52.0400009155273
168.64,-53.7600021362305
168.65,-71.5699996948242
168.66,-100.900001525879
168.67,-101.080001831055
168.68,-80.5000076293945
168.69,-56.9100036621094
168.7,-50.9200019836426
168.71,-47.9800033569336
168.72,-25.7200012207031
168.73,-2.80000019073486
168.74,16.9700012207031
168.75,14.9800004959106
168.76,15.8500003814697
168.77,29.8900012969971
168.78,47.8400039672852
168.79,49.9800033569336
168.8,25.6200008392334
168.81,11.2700004577637
168.82,11.4100008010864
168.828,7.3100004196167
168.838,-5.07000017166138
168.848,-21.6600017547607
168.858,-20.4700012207031
168.868,-0.0700000002980232
168.878,4.62000036239624
168.888,-10.9900007247925
168.898,-26.6000003814697
168.908,-19.8400001525879
168.918,-9.52000045776367
168.928,-27.230001449585
168.938,-61.0400047302246
168.948,-71.0100021362305
168.958,-46.620002746582
168.968,-33.1800003051758
168.978,-50.8900032043457
168.988,-56.7700042724609
168.998,-32.370002746582
169.008,-5.84000015258789
169.018,-11.0900001525879
169.027,-39.1600036621094
169.037,-47.3200035095215
169.047,-28.0000019073486
169.057,-19.1800003051758
169.067,-22.2900009155273
169.077,-23.2000007629395
169.087,-15.7100009918213
169.097,11.9700002670288
169.107,21.1400012969971
169.117,-2.06000018119812
169.127,10.6400003433228
169.137,23.9700012207031
169.147,-18.4100017547607
169.157,-56.1700019836426
169.167,-63.0700035095215
169.177,-82.6000061035156
169.187,-84.3500061035156
169.197,-75
169.207,-67.7900009155273
169.217,-43.3600006103516
169.222,-41.7500038146973
169.232,-41.3300018310547
169.242,-47.4900016784668
169.252,-35.560001373291
169.262,-16.480001449585
169.272,-26.8400020599365
169.282,-21.6300010681152
169.292,-11.3000001907349
169.302,-3.29000020027161
169.312,2.55000019073486
169.322,34.1900024414062
169.332,57.5400009155273
169.342,56.3500022888184
169.352,42.0000038146973
169.362,10.5300006866455
169.372,-16.2400016784668
169.38,-41.9300003051758
169.39,-64.4300003051758
169.4,-89.6000061035156
169.41,-91.5200042724609
169.42,-87.3200073242188
169.43,-79.3100051879883
169.44,-77.7700042724609
169.45,-66.9500045776367
169.46,-59.4600028991699
169.47,-57.5700035095215
169.48,-59.9200019836426
169.49,-61.0000038146973
169.5,-44.2400016784668
169.51,-21.980001449585
169.52,7.4200005531311
169.53,36.5700035095215
169.54,62.6100044250488
169.55,81.4100036621094
169.56,89.4200057983398
169.57,81.7600021362305
169.578,69.4400024414062
169.588,54.810001373291
169.598,29.0800018310547
169.608,-3.04000020027161
169.618,-34.0900001525879
169.628,-62.0900039672852
169.638,-88.1600036621094
169.648,-106.640007019043
169.658,-106.540008544922
169.668,-105.210006713867
169.678,-106.360008239746
169.688,-112.630004882812
169.698,-129.920013427734
169.708,-130.650009155273
169.718,-118.540008544922
169.728,-103.950004577637
169.738,-97.7500076293945
169.748,-90.0900039672852
169.758,-73.3199996948242
169.768,-61.9800033569336
169.777,-53.7200012207031
169.787,-62.9600028991699
169.797,-71.0100021362305
169.807,-70.4500045776367
169.817,-73.0400009155273
169.827,-73.3600006103516
169.837,-81.2300033569336
169.847,-76.9600067138672
169.857,-66.7800064086914
169.867,-55.1900024414062
169.877,-50.8200035095215
169.887,-41.9300003051758
169.897,-26.4900016784668
169.907,-7.52000045776367
169.917,3.64000010490417
169.927,8.53999996185303
169.937,20.4400005340576
169.947,57.3600044250488
169.957,95.7200012207031
169.967,114.550003051758
169.971,95.7900009155273
169.981,57.680004119873
169.991,28.5900020599365
170.001,-8.53999996185303
170.011,-28.0700016021729
170.021,-24.3900012969971
170.031,-41.8200035095215
170.041,-36.8900032043457
170.051,-29.3600006103516
170.061,-38.3600006103516
170.071,-35.7300033569336
170.081,-50.5400009155273
170.091,-62.2300033569336
170.101,-32.1300010681152
170.111,21.4500007629395
170.121,102.370002746582
170.13,182.520004272461
170.14,235.09001159668
170.15,268.029998779297
170.16,255.850006103516
170.17,223.610015869141
170.18,177.480010986328
170.19,89.2500076293945
170.2,3.92000007629395
170.21,-78.6800003051758
170.22,-162.890014648438
170.23,-212.660003662109
170.24,-227.880004882812
170.25,-224.140014648438
170.26,-197.120010375977
170.27,-149.520004272461
170.28,-94.7400054931641
170.29,-39.4800033569336
170.3,-0.840000033378601
170.31,24.9500007629395
170.32,42.7300033569336
170.328,37.6600036621094
170.338,14.5600004196167
170.348,-11.3000001907349
170.358,-31.1800022125244
170.368,-46.2300033569336
170.378,-62.7500038146973
170.388,-53.8600044250488
170.398,-46.5500030517578
170.408,-23.5200004577637
170.418,-10.2500009536743
170.428,-9.76000022888184
170.438,-5.46000003814697
170.448,-6.68000030517578
170.458,-30.3400020599365
170.468,-59.7100028991699
170.478,-97.370002746582
170.488,-153.75
170.498,-214.230010986328
170.508,-261.690002441406
170.518,-285.070007324219
170.527,-276.5
170.537,-224.140014648438
170.547,-114.480003356934
170.557,-3.32000017166138
170.567,73.6700057983398
170.577,134.68000793457
170.587,170.550003051758
170.597,181.470001220703
170.607,194.560012817383
170.617,198.59001159668
170.627,179.860015869141
170.637,163.800003051758
170.647,122.220008850098
170.657,66.2200012207031
170.667,43.8900032043457
170.677,43.1500015258789
170.687,27.1200008392334
170.697,18.5100002288818
170.707,-9.52000045776367
170.717,-27.8200016021729
170.722,-142.660003662109
170.732,-137.900009155273
170.742,-113.080001831055
170.752,-89.0000076293945
170.762,-47.7400016784668
170.772,20.6500015258789
170.782,75.6300048828125
170.792,125.540008544922
170.802,150.040008544922
170.812,144.09001159668
170.822,126.590003967285
170.832,94.4600067138672
170.842,46.2300033569336
170.852,-7.28000020980835
170.862,-60.5800018310547
170.872,-104.580001831055
170.88,-135.450012207031
170.89,-167.650009155273
170.9,-199.290008544922
170.91,-218.890014648438
170.92,-218.470016479492
170.93,-205.100006103516
170.94,-194.350006103516
170.95,-190.400009155273
170.96,-183.150009155273
170.97,-159.770004272461
170.98,-125.160003662109
170.99,-82.4600067138672
171,-36.4700012207031
171.01,-3.64000010490417
171.02,31.6000022888184
171.03,72.2400054931641
171.04,101.01000213623
171.05,111.860008239746
171.06,117.18000793457
171.07,92.7100067138672
171.078,62.1900024414062
171.088,30.4500007629395
171.098,-24.1100006103516
171.108,-82.0000076293945
171.118,-129.810012817383
171.128,-154.030014038086
171.138,-149.620010375977
171.148,-140.660003662109
171.158,-138.950012207031
171.168,-130.720001220703
171.178,-90.5400009155273
171.188,-28.6600017547607
171.198,16.060001373291
171.208,42.5900001525879
171.218,63.6600036621094
171.228,82.6300048828125
171.238,101.950004577637
171.248,117.110008239746
171.258,108.740005493164
171.268,83.5400009155273
171.277,57.3600044250488
171.287,43.6100006103516
171.297,19.6700000762939
171.307,-5.04000043869019
171.317,-31.3600006103516
171.327,-54.560001373291
171.337,-61.3200035095215
171.347,-61.1100044250488
171.357,-52.9500007629395
171.367,-52.2200012207031
171.377,-54.810001373291
171.387,-57.2900009155273
171.397,-61.5300025939941
171.407,-57.9200019836426
171.417,-58.2400016784668
171.427,-60.3400039672852
171.437,-54.6000022888184
171.447,-36.6800003051758
171.457,-14.9800004959106
171.467,-3.1800000667572
171.471,-9.73000049591064
171.481,-15.8900003433228
171.491,-16.2400016784668
171.501,-5.98000049591064
171.511,5.88000011444092
171.521,18.3400001525879
171.531,33.0699996948242
171.541,44.3800010681152
171.551,42.7700004577637
171.561,28.3800010681152
171.571,18.060001373291
171.581,8.89000034332275
171.591,4.01999998092651
171.601,-3.29000020027161
171.611,-23.5900020599365
171.621,-26.8400020599365
171.63,-19.1400012969971
171.64,-16.1700000762939
171.65,-11.5100002288818
171.66,-11.9700002670288
171.67,-11.4800004959106
171.68,-6.54000043869019
171.69,17.4600009918213
171.7,23.6200008392334
171.71,23.9400005340576
171.72,52.9200019836426
171.73,85.4700012207031
171.74,101.220001220703
171.75,83.370002746582
171.76,51.6900024414062
171.77,51.1700019836426
171.78,47.9500007629395
171.79,4.79000043869019
171.8,-38.810001373291
171.81,-40.7400016784668
171.82,-26.4600009918213
171.828,-9.83000087738037
171.838,17.7400016784668
171.848,-15.4000005722046
171.858,-29.5000019073486
171.868,-18.4100017547607
171.878,-38.6700019836426
171.888,-53.620002746582
171.898,-60.6900024414062
171.908,-47.1100006103516
171.918,-62.9600028991699
171.928,-61.8800010681152
171.938,-37.060001373291
171.948,-5.70000028610229
171.958,43.2200012207031
171.968,76.4000015258789
171.978,86.9400024414062
171.988,110.18000793457
171.998,143.320007324219
172.008,161.59001159668
172.018,124.390007019043
172.027,91.6300048828125
172.037,81.6900024414062
172.047,40.1800003051758
172.057,-13.8900003433228
172.067,-65.7300033569336
172.077,-133.84001159668
172.087,-182.730010986328
172.097,-182.660003662109
172.107,-186.060012817383
172.117,-165.130004882812
172.127,-112.940002441406
172.137,-89.0700073242188
172.147,-62.7900047302246
172.157,-20.1200008392334
172.167,28.1000003814697
172.177,10.6700000762939
172.187,-3.29000020027161
172.197,-23.1000003814697
172.207,3.71000027656555
172.217,34.8200035095215
172.222,-53.2000007629395
172.232,-48.6500015258789
172.242,-74.0600051879883
172.252,-96.4200057983398
172.262,-109.340003967285
172.272,-98.4500045776367
172.282,-82.4200057983398
172.292,-39.9300003051758
172.302,-46.7900009155273
172.312,-92.5000076293945
172.322,-50.7800025939941
172.332,-22.9900016784668
172.342,-5.98000049591064
172.352,36.7100028991699
172.362,77.4200057983398
172.372,101.43000793457
172.38,112.070007324219
172.39,96.9500045776367
172.4,91.7300033569336
172.41,76.75
172.42,53.2700042724609
172.43,52.9900016784668
172.44,29.8500022888184
172.45,26.6000003814697
172.46,-15.4300003051758
172.47,-76.7200012207031
172.48,-106.780006408691
172.49,-102.790008544922
172.5,-123.160003662109
172.51,-132.580001831055
172.52,-114.310005187988
172.53,-87.0100021362305
172.54,-53.7900009155273
172.55,-25.8600006103516
172.56,-26.1800003051758
172.57,-39.7200012207031
172.578,-49.5200004577637
172.588,-79.5500030517578
172.598,-113.68000793457
172.608,-123.650009155273
172.618,-145.980010986328
172.628,-145.389999389648
172.638,-142.380004882812
172.648,-154.380004882812
172.658,-132.300003051758
172.668,-103.210006713867
172.678,-46.3400039672852
172.688,21.560001373291
172.698,85.5400009155273
172.708,143.110000610352
172.718,145.670013427734
172.728,139.300003051758
172.738,112.100006103516
172.748,72.4100036621094
172.758,55.0500030517578
172.768,36.4300003051758
172.777,30.8000011444092
172.787,65.2400054931641
172.797,106.500007629395
172.807,140.070007324219
172.817,201.490005493164
172.827,268.800018310547
172.837,310.170013427734
172.847,322.980010986328
172.857,326.060028076172
172.867,295.190002441406
172.877,232.500015258789
172.887,176.010009765625
172.897,122.780006408691
172.907,52.430004119873
172.917,-14.4900007247925
172.927,-42.310001373291
172.937,-65.0600051879883
172.947,-77.0700073242188
172.957,-78.640007019043
172.967,-77
172.971,-86.9400024414062
172.981,-123.130004882812
172.991,-127.750007629395
173.001,-100.060005187988
173.011,-97.1600036621094
173.021,-90.2300033569336
173.031,-50.2900009155273
173.041,-7.98000049591064
173.051,22.1500015258789
173.061,39.4400024414062
173.071,32.9300003051758
173.081,16.5500011444092
173.091,7.80000019073486
173.101,-9.52000045776367
173.111,-25.1600017547607
173.121,-49.2800025939941
173.129,-72.2400054931641
173.139,-89.9500045776367
173.149,-105.770004272461
173.159,-123.370002746582
173.169,-141.920013427734
173.179,-155.150009155273
173.189,-156.130004882812
173.199,-176.150009155273
173.209,-171.670013427734
173.219,-143.990005493164
173.229,-100.830001831055
173.239,-58.9000015258789
173.249,-18.9300003051758
173.259,-3.88000011444092
173.269,9.20000076293945
173.279,42.4500007629395
173.289,57.4000015258789
173.299,46.4800033569336
173.309,26.1100006103516
173.319,10.3900003433228
173.328,-8.71000003814697
173.338,-20.9600009918213
173.348,-51.1300010681152
173.358,-54.4900016784668
173.368,-32.4099998474121
173.378,-10.3600006103516
173.388,14.2100009918213
173.398,40
173.408,53.4100036621094
173.418,58.5200042724609
173.428,71.0500030517578
173.438,51.1300010681152
173.448,16.1000003814697
173.458,-21.9400005340576
173.468,-55.9600028991699
173.478,-73.7800064086914
173.488,-81.7600021362305
173.498,-56.3500022888184
173.508,-3.15000009536743
173.518,57.5400009155273
173.527,90.5800018310547
173.537,127.080009460449
173.547,170.870010375977
173.557,167.93000793457
173.567,158.830001831055
173.577,149.060012817383
173.587,123.090003967285
173.597,77.2400054931641
173.607,45.0800018310547
173.617,2.31000018119812
173.627,-60.930004119873
173.637,-121.060005187988
173.647,-159.460006713867
173.657,-169.68000793457
173.667,-171.290008544922
173.677,-137.130004882812
173.687,-87.6700057983398
173.697,-65.4100036621094
173.707,-14.1000003814697
173.717,12.3200006484985
173.721,132.09001159668
173.731,119.660003662109
173.741,94.1500015258789
173.751,68.7000045776367
173.761,27.4700012207031
173.771,-11.2700004577637
173.781,-53.0200042724609
173.791,-84.9400024414062
173.801,-91.8000030517578
173.811,-87.9900054931641
173.821,-60.2700042724609
173.831,-38.8800010681152
173.841,-30.4100017547607
173.851,-16.730001449585
173.861,0.310000002384186
173.871,30.2700023651123
173.879,90.0500030517578
173.889,142.900009155273
173.899,150.780014038086
173.909,166.280014038086
173.919,179.510009765625
173.929,143.710006713867
173.939,81.370002746582
173.949,28.980001449585
173.959,-10.9200000762939
173.969,-55.8900032043457
173.979,-102.020004272461
173.989,-118.790008544922
173.999,-135.830001831055
174.009,-183.610015869141
174.019,-201.320007324219
174.029,-199.810012817383
174.039,-239.290008544922
174.049,-294.590026855469
174.059,-288.779998779297
174.069,-277.620025634766
174.078,-275.690002441406
174.088,-247.410018920898
174.098,-221.370010375977
174.108,-209.470016479492
174.118,-149.200012207031
174.128,-30.2000007629395
174.138,100.690002441406
174.148,186.860015869141
174.158,221.130004882812
174.168,232.540008544922
174.178,223.260009765625
174.188,187.040008544922
174.198,102.270004272461
174.208,-1.89000010490417
174.218,-84.0700073242188
174.228,-151.93000793457
174.238,-195.580001831055
174.248,-235.550018310547
174.258,-276.880004882812
174.268,-282.52001953125
174.277,-222.040008544922
174.287,-141.050003051758
174.297,-85.9900054931641
174.307,-15.6800003051758
174.317,80.390007019043
174.327,180.700012207031
174.337,272.160003662109
174.347,327.350006103516
174.357,364.000030517578
174.367,405.090026855469
174.377,425.390014648438
174.387,384.120025634766
174.397,283.150024414062
174.407,166.810012817383
174.417,64.9600067138672
174.427,-25.7900009155273
174.437,-89.7000045776367
174.447,-123.160003662109
174.457,-145.040008544922
174.467,-129.779998779297
174.471,-50.4000015258789
174.481,-18.6200008392334
174.491,9.0600004196167
174.501,19.8800010681152
174.511,48.6100006103516
174.521,82.0000076293945
174.531,82.4600067138672
174.541,59.5700035095215
174.551,-3.60000014305115
174.561,-74.2700042724609
174.571,-144.970001220703
174.581,-196.000015258789
174.591,-214.93000793457
174.601,-234.880004882812
174.611,-223.790008544922
174.621,-191.34001159668
174.629,-180.320007324219
174.639,-140.170013427734
174.649,-65.9000015258789
174.659,-16.1000003814697
174.669,27.7500019073486
174.679,71.6100006103516
174.689,77.8000030517578
174.699,71.9200057983398
174.709,87.7400054931641
174.719,79.5900039672852
174.729,46.6500015258789
174.739,17.9900016784668
174.749,18.6500015258789
174.759,18.0900001525879
174.769,8.85000038146973
174.779,14.1400003433228
174.789,26.3500003814697
174.799,42.5900001525879
174.809,43.7500038146973
174.819,34.370002746582
174.828,12.4900007247925
174.838,-1.6100001335144
174.848,-15.1200008392334
174.858,-17.1500015258789
174.868,-8.32999992370605
174.878,15.7500009536743
174.888,28.980001449585
174.898,13.0200004577637
174.908,-13.7900009155273
174.918,-18.0200004577637
174.928,-17.7400016784668
174.938,-36.9900016784668
174.948,-38.6400032043457
174.958,-38.5300025939941
174.968,-29.3600006103516
174.978,-10.7400007247925
174.988,-1.29000008106232
174.998,-1.50000011920929
175.008,1.75000011920929
175.018,2.13000011444092
175.027,-2.45000004768372
175.037,-9.90000057220459
175.047,-26.6000003814697
175.057,-36.7100028991699
175.067,-45.3200035095215
175.077,-45.4600028991699
175.087,-26.1800003051758
175.097,11.7600002288818
175.107,60.0900039672852
175.117,108.850006103516
175.127,163.550003051758
175.137,230.370010375977
175.147,270.860015869141
175.157,279.050018310547
175.167,285.950012207031
175.177,247.310012817383
175.187,179.300003051758
175.197,101.390007019043
175.207,26.980001449585
175.217,-27.5800018310547
175.221,4.16000032424927
175.231,17.9500007629395
175.241,31.3200016021729
175.251,26.7400016784668
175.261,19.7400016784668
175.271,0.840000033378601
175.281,-26.0400009155273
175.291,-39.5500030517578
175.301,-38.5
175.311,-26.980001449585
175.321,-10.1500005722046
175.331,16.3400001525879
175.341,43.7100028991699
175.351,57.1500015258789
175.361,68
175.371,80.390007019043
175.379,92.3600006103516
175.389,85.2600021362305
175.399,72.5500030517578
175.409,70
175.419,74.8300018310547
175.429,63.2400016784668
175.439,47.4600028991699
175.449,44.7600021362305
175.459,45.8500022888184
175.469,26.0700016021729
175.479,2.45000004768372
175.489,-21.7700004577637
175.499,-37.3800010681152
175.509,-53.6900024414062
175.519,-61.5300025939941
175.529,-48.8200035095215
175.539,-19.4600009918213
175.549,15.0800008773804
175.559,47.1100006103516
175.569,104.330001831055
175.578,158.480010986328
175.588,181.960006713867
175.598,183.120010375977
175.608,181.720001220703
175.618,169.080001831055
175.628,137.230010986328
175.638,101.600006103516
175.648,66.8500061035156
175.658,43.5000038146973
175.668,50.680004119873
175.678,65.8000030517578
175.688,86.6900024414062
175.698,130.270004272461
175.708,169.010009765625
175.718,198.100006103516
175.728,208.84001159668
175.738,214.790008544922
175.748,207.160003662109
175.758,177.030014038086
175.768,162.220001220703
175.777,139.260009765625
175.787,120.120002746582
175.797,119.490005493164
175.807,117.980003356934
175.817,97.2600021362305
175.827,93.4100036621094
175.837,87.8800048828125
175.847,67.620002746582
175.857,59.3200035095215
175.867,42.6300010681152
175.877,29.5700016021729
175.887,6.6100001335144
175.897,4.51000022888184
175.907,7.1700005531311
175.917,0.940000057220459
175.927,15.6800003051758
175.937,13.8900003433228
175.947,35.7000007629395
175.957,47.4900016784668
175.967,33.0699996948242
175.971,1.33000004291534
175.981,10.460000038147
175.991,25.0200004577637
176.001,57.7800025939941
176.011,77
176.021,64.120002746582
176.031,57.9200019836426
176.041,36.9600028991699
176.051,13.6800003051758
176.061,-23.9700012207031
176.071,-79.2000045776367
176.081,-150.5
176.091,-196.520004272461
176.101,-203.770004272461
176.111,-216.050003051758
176.121,-236.140014648438
176.129,-215.630004882812
176.139,-177.060012817383
176.149,-127.43000793457
176.159,-72.8000030517578
176.169,-44.6900024414062
176.179,-21.3800010681152
176.189,13.9600009918213
176.199,40.7400016784668
176.209,55.5800018310547
176.219,77.2100067138672
176.229,92.0500030517578
176.239,96.4900054931641
176.249,106.220008850098
176.259,109.340003967285
176.269,75.2800064086914
176.279,45.6700019836426
176.289,5.98000049591064
176.299,-35.1700019836426
176.309,-82.7000045776367
176.319,-126.280006408691
176.328,-148.080001831055
176.338,-156.130004882812
176.348,-144.200012207031
176.358,-107.240005493164
176.368,-69.5100021362305
176.378,-28.4500007629395
176.388,35.7300033569336
176.398,94.1100082397461
176.408,147.700012207031
176.418,185.010009765625
176.428,177.200012207031
176.438,145.25
176.448,126.910003662109
176.458,89.0700073242188
176.468,37.9400024414062
176.478,-34.4400024414062
176.488,-84.1700057983398
176.498,-107.030006408691
176.508,-93.4500045776367
176.518,-98.6300048828125
176.527,-73.25
176.537,-45.4600028991699
176.547,-7.49000024795532
176.557,54.1100044250488
176.567,119.770004272461
176.577,180.490005493164
176.587,203.700012207031
176.597,192.990005493164
176.607,189.070007324219
176.617,205.240005493164
176.627,213.880004882812
176.637,181.120010375977
176.647,115.950004577637
176.657,40.2800025939941
176.667,-2.48000001907349
176.677,-14.4200010299683
176.687,-22.9900016784668
176.697,-22.9200019836426
176.707,-14.0700006484985
176.717,25.230001449585
176.721,206.880004882812
176.731,163.800003051758
176.741,94.390007019043
176.751,8.96000003814697
176.761,-79.5500030517578
176.771,-165.34001159668
176.781,-219.520004272461
176.791,-243.600006103516
176.801,-226.34001159668
176.811,-159.980010986328
176.821,-84.9800033569336
176.831,-6.93000030517578
176.841,77.5600051879883
176.851,146.370010375977
176.861,199.920013427734
176.871,242.790008544922
176.879,251.750015258789
176.889,255.220016479492
176.899,267.470001220703
176.909,264.630004882812
176.919,252.660018920898
176.929,215.210006713867
176.939,166.000015258789
176.949,141.050003051758
176.959,99.0800018310547
176.969,69.5400009155273
176.979,31.1100006103516
176.989,-22.3600006103516
176.999,-49.7700004577637
177.009,-81.620002746582
177.019,-94.5700073242188
177.029,-79.5500030517578
177.039,-54.4600028991699
177.049,-2.97000002861023
177.059,43.5400009155273
177.069,64.1500015258789
177.078,61.0400047302246
177.088,62.120002746582
177.098,43.3600006103516
177.108,-17.0100002288818
177.118,-89.0700073242188
177.128,-159.740005493164
177.138,-223.820007324219
177.148,-245.770004272461
177.158,-263.720001220703
177.168,-273.490020751953
177.178,-243.210006713867
177.188,-189.730010986328
177.198,-113.780006408691
177.208,-30.7600021362305
177.218,30.5900020599365
177.228,81.2000045776367
177.238,119.140007019043
177.248,153.160003662109
177.258,177.940002441406
177.268,176.640014648438
177.273,169.960006713867
177.283,167.230010986328
177.293,154.380004882812
177.303,144.580001831055
177.313,134.050003051758
177.323,122.18000793457
177.333,95.0900039672852
177.343,36.4000015258789
177.353,-8.89000034332275
177.363,-34.7900009155273
177.373,-64.9600067138672
177.383,-90.120002746582
177.393,-116.93000793457
177.403,-118.370002746582
177.413,-78.4300003051758
177.423,-18.3000011444092
177.43,37.060001373291
177.44,69.9600067138672
177.45,103.950004577637
177.46,140.420013427734
177.47,157.390014648438
177.48,152.980010986328
177.49,146.190002441406
177.5,118.050003051758
177.51,90.8600006103516
177.52,67.7900009155273
177.53,62.3300018310547
177.54,73.9900054931641
177.55,71.8500061035156
177.56,68.8100051879883
177.57,57.9200019836426
177.58,45.1100006103516
177.59,22.6100006103516
177.6,6.79000043869019
177.61,-59.9200019836426
177.62,-87.2500076293945
177.629,-83.0900039672852
177.639,-74.8600006103516
177.649,-45.2200012207031
177.659,-19.1800003051758
177.669,19.8400001525879
177.679,77.9800033569336
177.689,132.300003051758
177.699,159.25
177.709,148.330001831055
177.719,125.790008544922
177.729,99.0100021362305
177.739,64.2900009155273
177.749,13.1900005340576
177.759,-35.7700004577637
177.769,-67.1300048828125
177.779,-77.3500061035156
177.789,-68.140007019043
177.799,-71.0100021362305
177.809,-78.9600067138672
177.819,-68.8400039672852
177.828,-47.3200035095215
177.838,-29.5400009155273
177.848,-23.4500007629395
177.858,-24.3600006103516
177.868,-13.0200004577637
177.878,8.22000026702881
177.888,27.2600021362305
177.898,39.7900009155273
177.908,42.8000030517578
177.918,49.0000038146973
177.928,71.640007019043
177.938,83.2300033569336
177.948,76.5800018310547
177.958,68.6700057983398
177.968,65.9000015258789
177.978,59.4600028991699
177.988,49.3500022888184
177.998,14.5600004196167
178.008,-16.5900001525879
178.018,-14.5900011062622
178.022,0.0300000011920929
178.032,13.9600009918213
178.042,9.83000087738037
178.052,3.08000016212463
178.062,2.48000001907349
178.072,-5.32000017166138
178.082,-22.7500019073486
178.092,-55.0500030517578
178.102,-72.8000030517578
178.112,-61.6700019836426
178.122,-40.3500022888184
178.132,-20.8200016021729
178.142,-1.4300000667572
178.152,34.0900001525879
178.162,68.9100036621094
178.172,97.9300079345703
178.18,125.090003967285
178.19,131.600006103516
178.2,125.120002746582
178.21,131.700012207031
178.22,124.070007324219
178.23,107.17000579834
178.24,62.680004119873
178.25,32.6900024414062
178.26,25.4100017547607
178.27,11.4800004959106
178.28,-10.8100004196167
178.29,-39.5800018310547
178.3,-32.5500030517578
178.31,-10.5000009536743
178.32,11.3000001907349
178.33,8.61000061035156
178.34,14.9400005340576
178.35,15.4700002670288
178.36,29.6800022125244
178.37,33.7700004577637
178.379,37.6600036621094
178.389,35.6599998474121
178.399,50.6100006103516
178.409,62.1600036621094
178.419,65.7300033569336
178.429,80.25
178.439,69.370002746582
178.449,43.2900009155273
178.459,19.6300010681152
178.469,16.1700000762939
178.479,9.55000019073486
178.489,2.17000007629395
178.499,-16.730001449585
178.509,-22.8500003814697
178.519,-11.3700008392334
178.529,-6.51000022888184
178.539,-17.25
178.549,-13.4700002670288
178.559,4.37000036239624
178.569,24.6700019836426
178.578,29.8900012969971
178.588,31.2500019073486
178.598,44.1000022888184
178.608,52.6700019836426
178.618,34.3000030517578
178.628,7.80000019073486
178.638,-5.95000028610229
178.648,-7.24000024795532
178.658,-12.0400009155273
178.668,-21.6600017547607
178.678,-26.1800003051758
178.688,-1.82000005245209
178.698,-6.19000005722046
178.708,-6.93000030517578
178.718,12.1800003051758
178.728,24.1500015258789
178.738,21.0000019073486
178.748,21.7700004577637
178.758,17.0799999237061
178.768,31.5000019073486
178.773,67.0200042724609
178.783,51.6900024414062
178.793,46.2700004577637
178.803,34.0900001525879
178.813,0.870000064373016
178.823,-27.4400005340576
178.833,-35.9400024414062
178.843,-25.0900020599365
178.853,-29.2200012207031
178.863,-27.1600017547607
178.873,1.05000007152557
178.883,31.7100009918213
178.893,29.6100006103516
178.903,28.2400016784668
178.913,34.2600021362305
178.923,38.1100006103516
178.93,23.2700004577637
178.94,9.52000045776367
178.95,5
178.96,-4.51000022888184
178.97,-8.96000003814697
178.98,2.69000005722046
178.99,35.3500022888184
179,43.6800003051758
179.01,32.5800018310547
179.02,33.560001373291
179.03,48.930004119873
179.04,40.810001373291
179.05,9.38000011444092
179.06,-20.8600006103516
