Time,AccelerometerX
187.528,-0.8046875
187.538,-0.98974609375
187.548,-1.021484375
187.558,-0.9140625
187.568,-0.7109375
187.579,-0.448974609375
187.589,-0.1685791015625
187.599,0.0592041015625
187.609,0.16796875
187.619,0.1419677734375
187.629,0.01702880859375
187.639,-0.146728515625
187.649,-0.29052734375
187.659,-0.37890625
187.669,-0.415771484375
187.679,-0.43310546875
187.689,-0.445068359375
187.699,-0.427001953125
187.709,-0.366943359375
187.719,-0.297119140625
187.729,-0.262939453125
187.739,-0.29345703125
187.749,-0.381103515625
187.759,-0.47998046875
187.769,-0.546875
187.773,-0.685546875
187.783,-0.6611328125
187.793,-0.60986328125
187.803,-0.5498046875
187.813,-0.49072265625
187.823,-0.43896484375
187.833,-0.399658203125
187.843,-0.384033203125
187.853,-0.40185546875
187.863,-0.44580078125
187.873,-0.49609375
187.883,-0.52294921875
187.893,-0.50244140625
187.903,-0.44482421875
187.913,-0.391357421875
187.923,-0.389892578125
187.931,-0.470947265625
187.941,-0.62890625
187.951,-0.82861328125
187.961,-1.0205078125
187.971,-1.1689453125
187.981,-1.2490234375
187.991,-1.24609375
188.001,-1.1572265625
188.011,-0.99951171875
188.021,-0.79541015625
188.031,-0.57373046875
188.041,-0.372314453125
188.051,-0.2264404296875
188.061,-0.147705078125
188.071,-0.1234130859375
188.081,-0.1390380859375
188.091,-0.1727294921875
188.101,-0.196044921875
188.111,-0.2020263671875
188.121,-0.2005615234375
188.13,-0.2122802734375
188.14,-0.27099609375
188.15,-0.39306640625
188.16,-0.55810546875
188.17,-0.72509765625
188.18,-0.84716796875
188.19,-0.89990234375
188.2,-0.89306640625
188.21,-0.8642578125
188.22,-0.8564453125
188.23,-0.88818359375
188.24,-0.94384765625
188.25,-0.98046875
188.26,-0.9619140625
188.27,-0.9013671875
188.28,-0.853515625
188.29,-0.87158203125
188.3,-0.97998046875
188.31,-1.16015625
188.32,-1.353515625
188.329,-1.486328125
188.339,-1.5029296875
188.349,-1.39453125
188.359,-1.185546875
188.369,-0.9248046875
188.379,-0.66552734375
188.389,-0.456787109375
188.399,-0.348388671875
188.409,-0.391845703125
188.419,-0.6171875
188.429,-1.0048828125
188.439,-1.4794921875
188.449,-1.931640625
188.459,-2.265625
188.469,-2.439453125
188.479,-2.45703125
188.489,-2.361328125
188.499,-2.1953125
188.509,-1.9931640625
188.519,-1.775390625
188.523,-1.25390625
188.533,-1.283203125
188.543,-1.29296875
188.553,-1.2705078125
188.563,-1.2216796875
188.573,-1.1591796875
188.583,-1.0888671875
188.593,-0.9931640625
188.603,-0.8583984375
188.613,-0.68603515625
188.623,-0.48681640625
188.633,-0.27587890625
188.643,-0.0675048828125
188.653,0.1331787109375
188.663,0.328369140625
188.673,0.51708984375
188.681,0.6884765625
188.691,0.8212890625
188.701,0.896484375
188.711,0.90185546875
188.721,0.8193359375
188.731,0.63037109375
188.741,0.3291015625
188.751,-0.062042236328125
188.761,-0.486328125
188.771,-0.87255859375
188.781,-1.1650390625
188.791,-1.3330078125
188.801,-1.3779296875
188.811,-1.33203125
188.821,-1.2470703125
188.831,-1.173828125
188.841,-1.1376953125
188.851,-1.1357421875
188.861,-1.1513671875
188.871,-1.1640625
188.88,-1.1572265625
188.89,-1.126953125
188.9,-1.0810546875
188.91,-1.033203125
188.92,-1.0068359375
188.93,-1.0166015625
188.94,-1.0654296875
188.95,-1.1328125
188.96,-1.1845703125
188.97,-1.2001953125
188.98,-1.1884765625
188.99,-1.1748046875
189,-1.1826171875
189.01,-1.21484375
189.02,-1.25
189.03,-1.2578125
189.04,-1.2265625
189.05,-1.1611328125
189.06,-1.0771484375
189.07,-0.9921875
189.079,-0.91650390625
189.089,-0.857421875
189.099,-0.8251953125
189.109,-0.81982421875
189.119,-0.83154296875
189.129,-0.85400390625
189.139,-0.884765625
189.149,-0.91943359375
189.159,-0.955078125
189.169,-0.9921875
189.179,-1.0341796875
189.189,-1.08203125
189.199,-1.1298828125
189.209,-1.1767578125
189.219,-1.2265625
189.229,-1.28125
189.239,-1.3408203125
189.249,-1.4033203125
189.259,-1.4560546875
189.269,-1.4833984375
189.273,-1.126953125
189.283,-1.0048828125
189.293,-0.9033203125
189.303,-0.8349609375
189.313,-0.80517578125
189.323,-0.8056640625
189.333,-0.82470703125
189.343,-0.85302734375
189.353,-0.88623046875
189.363,-0.91357421875
189.373,-0.9228515625
189.383,-0.91748046875
189.393,-0.91162109375
189.403,-0.9091796875
189.413,-0.90673828125
189.423,-0.90234375
189.431,-0.9013671875
189.441,-0.90771484375
189.451,-0.9169921875
189.461,-0.92041015625
189.471,-0.9228515625
189.481,-0.93359375
189.491,-0.95458984375
189.501,-0.9755859375
189.511,-0.98193359375
189.521,-0.96923828125
189.531,-0.939453125
189.541,-0.89599609375
189.551,-0.8427734375
189.561,-0.79052734375
189.571,-0.74755859375
189.581,-0.70703125
189.591,-0.65966796875
189.601,-0.60595703125
189.611,-0.54833984375
189.621,-0.47998046875
189.63,-0.3984375
189.64,-0.31591796875
189.65,-0.2420654296875
189.66,-0.1766357421875
189.67,-0.12408447265625
189.68,-0.10455322265625
189.69,-0.138427734375
189.7,-0.22265625
189.71,-0.320068359375
189.72,-0.37939453125
189.73,-0.369384765625
189.74,-0.29638671875
189.75,-0.1851806640625
189.76,-0.051971435546875
189.77,0.0863037109375
189.78,0.19091796875
189.79,0.2115478515625
189.8,0.12286376953125
189.81,-0.050262451171875
189.82,-0.2413330078125
189.829,-0.3818359375
189.839,-0.4423828125
189.849,-0.442138671875
189.859,-0.42578125
189.869,-0.4267578125
189.879,-0.44580078125
189.889,-0.460205078125
189.899,-0.44677734375
189.909,-0.399658203125
189.919,-0.330078125
189.929,-0.26220703125
189.939,-0.2259521484375
189.949,-0.24560546875
189.959,-0.326904296875
189.969,-0.45703125
189.979,-0.61865234375
189.989,-0.78564453125
189.999,-0.90673828125
190.009,-0.9287109375
190.019,-0.83935546875
190.023,-0.053253173828125
190.033,-0.0221099853515625
190.043,-0.022796630859375
190.053,-0.050933837890625
190.063,-0.09576416015625
190.073,-0.140869140625
190.083,-0.179931640625
190.093,-0.220458984375
190.103,-0.27490234375
190.113,-0.34521484375
190.123,-0.412109375
190.133,-0.444580078125
190.143,-0.423583984375
190.153,-0.353515625
190.163,-0.26025390625
190.173,-0.1815185546875
190.181,-0.140380859375
190.191,-0.1322021484375
190.201,-0.14013671875
190.211,-0.1500244140625
190.221,-0.1605224609375
190.231,-0.18505859375
190.241,-0.239013671875
190.251,-0.3212890625
190.261,-0.412353515625
190.271,-0.478759765625
190.281,-0.487548828125
190.291,-0.423828125
190.301,-0.29833984375
190.311,-0.1474609375
190.321,-0.0172576904296875
190.331,0.055938720703125
190.341,0.0592041015625
190.351,-0.000496864318847656
190.361,-0.10516357421875
190.371,-0.2325439453125
190.38,-0.365234375
190.39,-0.48876953125
190.4,-0.57861328125
190.41,-0.607421875
190.42,-0.56396484375
190.43,-0.46435546875
190.44,-0.343505859375
190.45,-0.2264404296875
190.46,-0.118408203125
190.47,-0.025299072265625
190.48,0.0303955078125
190.49,0.022552490234375
190.5,-0.051910400390625
190.51,-0.163818359375
190.52,-0.268310546875
190.53,-0.330078125
190.54,-0.339599609375
190.55,-0.3046875
190.56,-0.234375
190.57,-0.13525390625
190.579,-0.02215576171875
190.589,0.07489013671875
190.599,0.1240234375
190.609,0.11639404296875
190.619,0.074462890625
190.629,0.026153564453125
190.639,-0.023162841796875
190.649,-0.08544921875
190.659,-0.168212890625
190.669,-0.258544921875
190.679,-0.32373046875
190.689,-0.336181640625
190.699,-0.298095703125
190.709,-0.2391357421875
190.719,-0.1910400390625
190.729,-0.1728515625
190.739,-0.1864013671875
190.749,-0.2158203125
190.759,-0.2379150390625
190.769,-0.2413330078125
190.774,0.00498580932617188
190.784,0.1068115234375
190.794,0.18310546875
190.804,0.1837158203125
190.814,0.06646728515625
190.824,-0.1739501953125
190.834,-0.489990234375
190.844,-0.79345703125
190.854,-1
190.864,-1.0712890625
190.874,-1.0146484375
190.884,-0.85205078125
190.894,-0.59716796875
190.904,-0.277587890625
190.914,0.0609130859375
190.924,0.353271484375
190.931,0.529296875
190.941,0.54052734375
190.951,0.382568359375
190.961,0.09832763671875
190.971,-0.2427978515625
190.981,-0.552734375
190.991,-0.740234375
191.001,-0.7568359375
191.011,-0.634765625
191.021,-0.45263671875
191.031,-0.268310546875
191.041,-0.1044921875
191.051,0.032318115234375
191.061,0.1409912109375
191.071,0.2154541015625
191.081,0.239013671875
191.091,0.198486328125
191.101,0.0985107421875
191.111,-0.042755126953125
191.121,-0.1986083984375
191.13,-0.340087890625
191.14,-0.445068359375
191.15,-0.498046875
191.16,-0.489013671875
191.17,-0.413818359375
191.18,-0.27978515625
191.19,-0.10791015625
191.2,0.067138671875
191.21,0.204345703125
191.22,0.271484375
191.23,0.25390625
191.24,0.1585693359375
191.25,0.0127410888671875
191.26,-0.1572265625
191.27,-0.3466796875
191.28,-0.5537109375
191.29,-0.755859375
191.3,-0.9091796875
191.31,-0.96728515625
191.32,-0.908203125
191.329,-0.74755859375
191.339,-0.52978515625
191.349,-0.3115234375
191.359,-0.1448974609375
191.369,-0.061187744140625
191.379,-0.06610107421875
191.389,-0.1461181640625
191.399,-0.27392578125
191.409,-0.411376953125
191.419,-0.52099609375
191.429,-0.57568359375
191.439,-0.564453125
191.449,-0.495361328125
191.459,-0.3876953125
191.469,-0.26220703125
191.479,-0.1365966796875
191.489,-0.025238037109375
191.499,0.0595703125
191.509,0.1033935546875
191.519,0.09320068359375
191.524,-0.207763671875
191.534,-0.221923828125
191.544,-0.2171630859375
191.554,-0.183349609375
191.564,-0.11920166015625
191.574,-0.04241943359375
191.584,0.018035888671875
191.594,0.0253143310546875
191.604,-0.04376220703125
191.614,-0.17236328125
191.624,-0.31591796875
191.634,-0.428466796875
191.644,-0.4794921875
191.654,-0.468994140625
191.664,-0.421142578125
191.674,-0.3671875
191.681,-0.331298828125
191.691,-0.32373046875
191.701,-0.336669921875
191.711,-0.351806640625
191.721,-0.355224609375
191.731,-0.338623046875
191.741,-0.299560546875
191.751,-0.239501953125
191.761,-0.1605224609375
191.771,-0.06964111328125
191.781,0.0133514404296875
191.791,0.06060791015625
191.801,0.048187255859375
191.811,-0.0343017578125
191.821,-0.179931640625
191.831,-0.368408203125
191.841,-0.57177734375
191.851,-0.75244140625
191.861,-0.875
191.871,-0.91943359375
191.88,-0.88427734375
191.89,-0.775390625
191.9,-0.607421875
191.91,-0.408935546875
191.92,-0.21240234375
191.93,-0.051605224609375
191.94,0.04827880859375
191.95,0.08709716796875
191.96,0.0853271484375
191.97,0.066650390625
191.98,0.04736328125
191.99,0.03076171875
192,0.0127716064453125
192.01,-0.00876617431640625
192.02,-0.03887939453125
192.03,-0.08917236328125
192.04,-0.166748046875
192.05,-0.267822265625
192.06,-0.380126953125
192.07,-0.4873046875
192.075,-0.79248046875
192.085,-0.8212890625
192.095,-0.83984375
192.105,-0.84326171875
192.115,-0.82373046875
192.125,-0.77734375
192.135,-0.7099609375
192.145,-0.6337890625
192.155,-0.56103515625
192.165,-0.49853515625
192.175,-0.450927734375
192.185,-0.423095703125
192.195,-0.41796875
192.205,-0.42822265625
192.215,-0.440185546875
192.225,-0.440673828125
192.232,-0.420654296875
192.242,-0.383056640625
192.252,-0.33740234375
192.262,-0.293701171875
192.272,-0.2607421875
192.282,-0.24609375
192.292,-0.25048828125
192.302,-0.27099609375
192.312,-0.2998046875
192.322,-0.326416015625
192.332,-0.3427734375
192.342,-0.344970703125
192.352,-0.339111328125
192.362,-0.34375
192.372,-0.376953125
192.382,-0.444580078125
192.392,-0.54248046875
192.402,-0.65771484375
192.412,-0.77099609375
192.422,-0.86474609375
192.431,-0.92431640625
192.441,-0.93994140625
192.451,-0.9169921875
192.461,-0.876953125
192.471,-0.8427734375
192.481,-0.830078125
192.491,-0.84228515625
192.501,-0.8681640625
192.511,-0.88427734375
192.521,-0.8701171875
192.531,-0.81689453125
192.541,-0.72314453125
192.551,-0.603515625
192.561,-0.478271484375
192.571,-0.3642578125
192.581,-0.276611328125
192.591,-0.2257080078125
192.601,-0.2108154296875
192.611,-0.2247314453125
192.621,-0.25439453125
192.63,-0.2783203125
192.64,-0.27685546875
192.65,-0.24169921875
192.66,-0.1798095703125
192.67,-0.112548828125
192.68,-0.0633544921875
192.69,-0.0479736328125
192.7,-0.07183837890625
192.71,-0.1307373046875
192.72,-0.2152099609375
192.73,-0.3125
192.74,-0.407470703125
192.75,-0.4873046875
192.76,-0.544921875
192.77,-0.57373046875
192.78,-0.568359375
192.79,-0.52734375
192.8,-0.452392578125
192.81,-0.353515625
192.82,-0.2396240234375
192.825,0.10675048828125
192.835,0.0114898681640625
192.845,-0.1431884765625
192.855,-0.335693359375
192.865,-0.53125
192.875,-0.6826171875
192.885,-0.74755859375
192.895,-0.70654296875
192.905,-0.56884765625
192.915,-0.369384765625
192.925,-0.1597900390625
192.935,0.00333404541015625
192.945,0.08123779296875
192.955,0.0745849609375
192.965,0.0098724365234375
192.975,-0.0782470703125
192.982,-0.159423828125
192.992,-0.23388671875
193.002,-0.31884765625
193.012,-0.40869140625
193.022,-0.479248046875
193.032,-0.5029296875
193.042,-0.459716796875
193.052,-0.360595703125
193.062,-0.244140625
193.072,-0.1480712890625
193.082,-0.09918212890625
193.092,-0.105224609375
193.102,-0.163330078125
193.112,-0.2724609375
193.122,-0.4208984375
193.132,-0.5712890625
193.142,-0.6640625
193.152,-0.65380859375
193.162,-0.5478515625
193.172,-0.393798828125
193.181,-0.2498779296875
193.191,-0.1591796875
193.201,-0.1337890625
193.211,-0.1680908203125
193.221,-0.267578125
193.231,-0.432373046875
193.241,-0.63134765625
193.251,-0.81103515625
193.261,-0.90869140625
193.271,-0.884765625
193.281,-0.7529296875
193.291,-0.57470703125
193.301,-0.421875
193.311,-0.342529296875
193.321,-0.351806640625
193.331,-0.4375
193.341,-0.55224609375
193.351,-0.6328125
193.361,-0.63525390625
193.371,-0.5595703125
193.38,-0.458984375
193.39,-0.41650390625
193.4,-0.496826171875
193.41,-0.6943359375
193.42,-0.9228515625
193.43,-1.060546875
193.44,-1.0224609375
193.45,-0.81103515625
193.46,-0.50244140625
193.47,-0.20751953125
193.48,-0.0127029418945312
193.49,0.048309326171875
193.5,0.00163936614990234
193.51,-0.08282470703125
193.52,-0.1307373046875
193.53,-0.10205078125
193.54,-0.0130462646484375
193.55,0.06927490234375
193.56,0.06640625
193.57,-0.05908203125
193.575,-0.65478515625
193.585,-0.7578125
193.595,-0.8486328125
193.605,-0.8427734375
193.615,-0.7119140625
193.625,-0.49365234375
193.635,-0.251953125
193.645,-0.053985595703125
193.655,0.0367431640625
193.665,-0.0168304443359375
193.675,-0.18115234375
193.685,-0.363037109375
193.695,-0.49951171875
193.705,-0.607421875
193.715,-0.73388671875
193.725,-0.87353515625
193.732,-0.95068359375
193.742,-0.88916015625
193.752,-0.68701171875
193.762,-0.43115234375
193.772,-0.250732421875
193.782,-0.225830078125
193.792,-0.33740234375
193.802,-0.489501953125
193.812,-0.57373046875
193.822,-0.5361328125
193.832,-0.400390625
193.842,-0.22705078125
193.852,-0.06787109375
193.862,0.0545654296875
193.872,0.140380859375
193.882,0.1907958984375
193.892,0.1954345703125
193.902,0.1461181640625
193.912,0.06024169921875
193.922,-0.0216064453125
193.931,-0.07806396484375
193.941,-0.1400146484375
193.951,-0.253662109375
193.961,-0.421875
193.971,-0.59033203125
193.981,-0.69482421875
193.991,-0.728515625
194.001,-0.73828125
194.011,-0.75537109375
194.021,-0.7646484375
194.031,-0.7255859375
194.041,-0.61328125
194.051,-0.452392578125
194.061,-0.30322265625
194.071,-0.2215576171875
194.081,-0.2208251953125
194.091,-0.265380859375
194.101,-0.312744140625
194.111,-0.356689453125
194.121,-0.42626953125
194.13,-0.529296875
194.14,-0.61669921875
194.15,-0.63671875
194.16,-0.60546875
194.17,-0.58447265625
194.18,-0.61474609375
194.19,-0.66748046875
194.2,-0.67919921875
194.21,-0.6220703125
194.22,-0.529296875
194.23,-0.469482421875
194.24,-0.48046875
194.25,-0.5302734375
194.26,-0.5556640625
194.27,-0.53515625
194.28,-0.505859375
194.29,-0.51904296875
194.3,-0.587890625
194.31,-0.67041015625
194.32,-0.71630859375
194.325,-1.2421875
194.335,-1.244140625
194.345,-1.109375
194.355,-0.92626953125
194.365,-0.77783203125
194.375,-0.67578125
194.385,-0.58642578125
194.395,-0.497802734375
194.405,-0.44384765625
194.415,-0.46875
194.425,-0.5693359375
194.435,-0.6787109375
194.445,-0.720703125
194.455,-0.6767578125
194.465,-0.60107421875
194.475,-0.56689453125
194.482,-0.60791015625
194.492,-0.70556640625
194.502,-0.81201171875
194.512,-0.89599609375
194.522,-0.9619140625
194.532,-1.0126953125
194.542,-1.021484375
194.552,-0.951171875
194.562,-0.79931640625
194.572,-0.6201171875
194.582,-0.4755859375
194.592,-0.3779296875
194.602,-0.29296875
194.612,-0.192138671875
194.622,-0.07861328125
194.632,0.02349853515625
194.642,0.0777587890625
194.652,0.033355712890625
194.662,-0.1571044921875
194.672,-0.495849609375
194.681,-0.92431640625
194.691,-1.349609375
194.701,-1.685546875
194.711,-1.884765625
194.721,-1.9423828125
194.731,-1.8740234375
194.741,-1.7109375
194.751,-1.4814453125
194.761,-1.2177734375
194.771,-0.95849609375
194.781,-0.74462890625
194.791,-0.61376953125
194.801,-0.5810546875
194.811,-0.63037109375
194.821,-0.72412109375
194.831,-0.82470703125
194.841,-0.908203125
194.851,-0.9697265625
194.861,-1.013671875
194.871,-1.0439453125
194.88,-1.0517578125
194.89,-1.021484375
194.9,-0.9521484375
194.91,-0.86376953125
194.92,-0.7919921875
194.93,-0.76416015625
194.94,-0.78857421875
194.95,-0.849609375
194.96,-0.9189453125
194.97,-0.9736328125
194.98,-1.0078125
194.99,-1.0302734375
195,-1.0380859375
195.01,-1.021484375
195.02,-0.97998046875
195.03,-0.93701171875
195.04,-0.92333984375
195.05,-0.95068359375
195.06,-1.0078125
195.07,-1.0771484375
195.075,-1.16796875
195.085,-1.09765625
195.095,-1.0146484375
195.105,-0.935546875
195.115,-0.880859375
195.125,-0.865234375
195.135,-0.8828125
195.145,-0.91455078125
195.155,-0.9462890625
195.165,-0.96923828125
195.175,-0.97119140625
195.185,-0.94482421875
195.195,-0.90185546875
195.205,-0.86083984375
195.215,-0.830078125
195.225,-0.8076171875
195.232,-0.7939453125
195.242,-0.79052734375
195.252,-0.78955078125
195.262,-0.78759765625
195.272,-0.7890625
195.282,-0.7958984375
195.292,-0.8076171875
195.302,-0.82666015625
195.312,-0.85205078125
195.322,-0.875
195.332,-0.89013671875
195.342,-0.8994140625
195.352,-0.900390625
195.362,-0.88916015625
195.372,-0.859375
195.382,-0.80126953125
195.392,-0.7177734375
195.402,-0.62451171875
195.412,-0.53466796875
195.422,-0.45703125
195.431,-0.409423828125
195.441,-0.410400390625
195.451,-0.46728515625
195.461,-0.57421875
195.471,-0.70849609375
195.481,-0.83251953125
195.491,-0.90625
195.501,-0.90625
195.511,-0.833984375
195.521,-0.71484375
195.531,-0.587890625
195.541,-0.495361328125
195.551,-0.460205078125
195.561,-0.487060546875
195.571,-0.56640625
195.581,-0.6787109375
195.591,-0.80029296875
195.601,-0.908203125
195.611,-0.98583984375
195.621,-1.0234375
195.63,-1.0234375
195.64,-0.9912109375
195.65,-0.93310546875
195.66,-0.8583984375
195.67,-0.78271484375
195.68,-0.72119140625
195.69,-0.6796875
195.7,-0.65380859375
195.71,-0.63671875
195.72,-0.62841796875
195.73,-0.6318359375
195.74,-0.64599609375
195.75,-0.66943359375
195.76,-0.7021484375
195.77,-0.7431640625
195.78,-0.78564453125
195.79,-0.81396484375
195.8,-0.81982421875
195.81,-0.80859375
195.82,-0.7939453125
195.825,-0.82421875
195.835,-0.79052734375
195.845,-0.720703125
195.855,-0.62939453125
195.865,-0.5400390625
195.875,-0.46435546875
195.885,-0.40478515625
195.895,-0.368408203125
195.905,-0.36669921875
195.915,-0.398681640625
195.925,-0.44775390625
195.935,-0.49609375
195.945,-0.53369140625
195.955,-0.56396484375
195.965,-0.6005859375
195.975,-0.6611328125
195.982,-0.75146484375
195.992,-0.8583984375
196.002,-0.95947265625
196.012,-1.0341796875
196.022,-1.0673828125
196.032,-1.05078125
196.042,-0.98388671875
196.052,-0.88037109375
196.062,-0.76220703125
196.072,-0.65283203125
196.082,-0.57373046875
196.092,-0.537109375
196.102,-0.53759765625
196.112,-0.55810546875
196.122,-0.57666015625
196.132,-0.57861328125
196.142,-0.5654296875
196.152,-0.55712890625
196.162,-0.5693359375
196.172,-0.60498046875
196.181,-0.66015625
196.191,-0.73388671875
196.201,-0.81689453125
196.211,-0.890625
196.221,-0.9365234375
196.231,-0.939453125
196.241,-0.88671875
196.251,-0.77294921875
196.261,-0.60986328125
196.271,-0.430419921875
196.281,-0.278076171875
196.291,-0.1873779296875
196.301,-0.165771484375
196.311,-0.196533203125
196.321,-0.255615234375
196.331,-0.321044921875
196.341,-0.381103515625
196.351,-0.435791015625
196.361,-0.489990234375
196.371,-0.5458984375
196.379,-0.5986328125
196.389,-0.6357421875
196.399,-0.6455078125
196.409,-0.62158203125
196.419,-0.564453125
196.429,-0.483154296875
196.439,-0.394287109375
196.449,-0.316650390625
196.459,-0.264404296875
196.469,-0.2447509765625
196.479,-0.25830078125
196.489,-0.2998046875
196.499,-0.357421875
196.509,-0.41357421875
196.519,-0.450439453125
196.529,-0.45361328125
196.539,-0.4150390625
196.549,-0.332763671875
196.559,-0.2142333984375
196.569,-0.0865478515625
196.573,-0.049224853515625
196.583,-0.127685546875
196.593,-0.21044921875
196.603,-0.28466796875
196.613,-0.346923828125
196.623,-0.404541015625
196.633,-0.463134765625
196.643,-0.51318359375
196.653,-0.53125
196.663,-0.49462890625
196.673,-0.3955078125
196.683,-0.252685546875
196.693,-0.10443115234375
196.703,0.018951416015625
196.713,0.1014404296875
196.723,0.1309814453125
196.732,0.107421875
196.742,0.049652099609375
196.752,-0.0210113525390625
196.762,-0.08807373046875
196.772,-0.1337890625
196.782,-0.14453125
196.792,-0.11895751953125
196.802,-0.06683349609375
196.812,-0.00275802612304688
196.822,0.059356689453125
196.832,0.10595703125
196.842,0.128173828125
196.852,0.131591796875
196.862,0.1280517578125
196.872,0.1192626953125
196.882,0.10174560546875
196.892,0.0802001953125
196.902,0.063720703125
196.912,0.058502197265625
196.922,0.06890869140625
196.931,0.09442138671875
196.941,0.12225341796875
196.951,0.1378173828125
196.961,0.1385498046875
196.971,0.1268310546875
196.981,0.09674072265625
196.991,0.042022705078125
197.001,-0.029388427734375
197.011,-0.095458984375
197.021,-0.1365966796875
197.031,-0.146728515625
197.041,-0.126708984375
197.051,-0.0811767578125
197.061,-0.024627685546875
197.071,0.026214599609375
197.081,0.06549072265625
197.091,0.0897216796875
197.101,0.09075927734375
197.111,0.07086181640625
197.121,0.0462646484375
197.129,0.0308990478515625
197.139,0.032501220703125
197.149,0.05035400390625
197.159,0.0670166015625
197.169,0.05718994140625
197.179,0.00650405883789062
197.189,-0.07904052734375
197.199,-0.17724609375
197.209,-0.26123046875
197.219,-0.310302734375
197.229,-0.316162109375
197.239,-0.289794921875
197.249,-0.254150390625
197.259,-0.2281494140625
197.269,-0.21337890625
197.279,-0.2000732421875
197.289,-0.1826171875
197.299,-0.16455078125
197.309,-0.147216796875
197.319,-0.13525390625
197.323,-0.290283203125
197.333,-0.319091796875
197.343,-0.3203125
197.353,-0.2890625
197.363,-0.2286376953125
197.373,-0.14990234375
197.383,-0.059295654296875
197.393,0.03302001953125
197.403,0.10150146484375
197.413,0.1202392578125
197.423,0.08349609375
197.433,0.0089111328125
197.443,-0.0745849609375
197.453,-0.142333984375
197.463,-0.1768798828125
197.473,-0.1690673828125
197.482,-0.1229248046875
197.492,-0.05328369140625
197.502,0.0153274536132812
197.512,0.05615234375
197.522,0.06072998046875
197.532,0.0384521484375
197.542,-0.000513076782226562
197.552,-0.047515869140625
197.562,-0.09130859375
197.572,-0.11761474609375
197.582,-0.110595703125
197.592,-0.06390380859375
197.602,0.00992584228515625
197.612,0.09130859375
197.622,0.164306640625
197.632,0.2120361328125
197.642,0.2176513671875
197.652,0.1761474609375
197.662,0.1009521484375
197.672,0.0153350830078125
197.681,-0.060882568359375
197.691,-0.11688232421875
197.701,-0.1470947265625
197.711,-0.145751953125
197.721,-0.10662841796875
197.731,-0.0300140380859375
197.741,0.06842041015625
197.751,0.16357421875
197.761,0.2322998046875
197.771,0.260498046875
197.781,0.24609375
197.791,0.19873046875
197.801,0.137939453125
197.811,0.08197021484375
197.821,0.0379638671875
197.831,0.00498199462890625
197.841,-0.020294189453125
197.851,-0.037811279296875
197.861,-0.0433349609375
197.871,-0.0335693359375
197.879,-0.0105819702148438
197.889,0.014617919921875
197.899,0.02813720703125
197.909,0.0239105224609375
197.919,0.00273895263671875
197.929,-0.03411865234375
197.939,-0.08331298828125
197.949,-0.133056640625
197.959,-0.167236328125
197.969,-0.177734375
197.979,-0.1636962890625
197.989,-0.12408447265625
197.999,-0.061431884765625
198.009,0.0160369873046875
198.019,0.09722900390625
198.029,0.1689453125
198.039,0.217529296875
198.049,0.2330322265625
198.059,0.215087890625
198.069,0.17333984375
198.073,-0.1634521484375
198.083,-0.2099609375
198.093,-0.227783203125
198.103,-0.20751953125
198.113,-0.1527099609375
198.123,-0.07598876953125
198.133,0.0093231201171875
198.143,0.08978271484375
198.153,0.151123046875
198.163,0.1822509765625
198.173,0.1778564453125
198.183,0.1373291015625
198.193,0.07086181640625
198.203,-0.00449752807617188
198.213,-0.082275390625
198.223,-0.1654052734375
198.232,-0.2479248046875
198.242,-0.31005859375
198.252,-0.328369140625
198.262,-0.290771484375
198.272,-0.204833984375
198.282,-0.09149169921875
198.292,0.02667236328125
198.302,0.1324462890625
198.312,0.2127685546875
198.322,0.254638671875
198.332,0.2498779296875
198.342,0.201171875
198.352,0.1251220703125
198.362,0.04302978515625
198.372,-0.0303955078125
198.382,-0.0860595703125
198.392,-0.11712646484375
198.402,-0.1217041015625
198.412,-0.10333251953125
198.422,-0.0670166015625
198.431,-0.022125244140625
198.441,0.0152816772460938
198.451,0.03546142578125
198.461,0.040802001953125
198.471,0.03369140625
198.481,0.0152206420898438
198.491,-0.007904052734375
198.501,-0.03338623046875
198.511,-0.070556640625
198.521,-0.1226806640625
198.531,-0.174560546875
198.541,-0.2037353515625
198.551,-0.1993408203125
198.561,-0.1695556640625
198.571,-0.12841796875
198.581,-0.0823974609375
198.591,-0.034149169921875
198.601,0.00914764404296875
198.611,0.038421630859375
198.621,0.048828125
198.629,0.041015625
198.639,0.0175933837890625
198.649,-0.019287109375
198.659,-0.06671142578125
198.669,-0.122314453125
198.679,-0.18603515625
198.689,-0.25439453125
198.699,-0.31689453125
198.709,-0.3583984375
198.719,-0.3662109375
198.729,-0.3359375
198.739,-0.270263671875
198.749,-0.1767578125
198.759,-0.07568359375
198.769,0.000710487365722656
198.779,0.034027099609375
198.789,0.0321044921875
198.799,0.0114517211914062
198.809,-0.0165863037109375
198.819,-0.04022216796875
198.823,0.0241546630859375
198.833,-0.035736083984375
198.843,-0.109619140625
198.853,-0.176513671875
198.863,-0.2308349609375
198.873,-0.2724609375
198.883,-0.300537109375
198.893,-0.3134765625
198.903,-0.3056640625
198.913,-0.2724609375
198.923,-0.2171630859375
198.933,-0.14404296875
198.943,-0.059814453125
198.953,0.0160675048828125
198.963,0.061492919921875
198.973,0.06878662109375
198.982,0.04229736328125
198.992,-0.0119247436523438
199.002,-0.08892822265625
199.012,-0.1802978515625
199.022,-0.265380859375
199.032,-0.31005859375
199.042,-0.291259765625
199.052,-0.2236328125
199.062,-0.144775390625
199.072,-0.08050537109375
199.082,-0.03936767578125
199.092,-0.0196685791015625
199.102,-0.0160675048828125
199.112,-0.02496337890625
199.122,-0.037750244140625
199.132,-0.034088134765625
199.142,-6.02602958679199e-05
199.152,0.05047607421875
199.162,0.084716796875
199.172,0.076416015625
199.181,0.0224761962890625
199.191,-0.0577392578125
199.201,-0.1392822265625
199.211,-0.208984375
199.221,-0.264892578125
199.231,-0.3037109375
199.241,-0.315673828125
199.251,-0.290771484375
199.261,-0.227294921875
199.271,-0.140869140625
199.281,-0.06890869140625
199.291,-0.043426513671875
199.301,-0.0635986328125
199.311,-0.10736083984375
199.321,-0.15478515625
199.331,-0.1956787109375
199.341,-0.2318115234375
199.351,-0.271484375
199.361,-0.3134765625
199.371,-0.34130859375
199.379,-0.3408203125
199.389,-0.313720703125
199.399,-0.27392578125
199.409,-0.2413330078125
199.419,-0.234619140625
199.429,-0.255615234375
199.439,-0.2880859375
199.449,-0.3095703125
199.459,-0.3037109375
199.469,-0.2685546875
199.479,-0.221435546875
199.489,-0.1832275390625
199.499,-0.16552734375
199.509,-0.172119140625
199.519,-0.199951171875
199.529,-0.2381591796875
199.539,-0.271484375
199.549,-0.28857421875
199.559,-0.28515625
199.569,-0.264404296875
199.573,-0.27099609375
199.583,-0.255615234375
199.593,-0.2039794921875
199.603,-0.1248779296875
199.613,-0.04229736328125
199.623,0.0100173950195312
199.633,0.0058135986328125
199.643,-0.056732177734375
199.653,-0.1573486328125
199.663,-0.265869140625
199.673,-0.349609375
199.683,-0.37841796875
199.693,-0.341064453125
199.703,-0.25390625
199.713,-0.149658203125
199.723,-0.0623779296875
199.732,-0.0137100219726562
199.742,-0.00419998168945312
199.752,-0.0223388671875
199.762,-0.056182861328125
199.772,-0.09454345703125
199.782,-0.1319580078125
199.792,-0.1685791015625
199.802,-0.200927734375
199.812,-0.2227783203125
199.822,-0.230712890625
199.832,-0.223876953125
199.842,-0.205078125
199.852,-0.17626953125
199.862,-0.134033203125
199.872,-0.077392578125
199.882,-0.0120773315429688
199.892,0.052459716796875
199.902,0.10076904296875
199.912,0.11376953125
199.922,0.08123779296875
199.931,0.00566864013671875
199.941,-0.10302734375
199.951,-0.23046875
199.961,-0.357421875
199.971,-0.462158203125
199.981,-0.525390625
199.991,-0.54248046875
200.001,-0.521484375
200.011,-0.47998046875
200.021,-0.43505859375
200.031,-0.397216796875
200.041,-0.37109375
200.051,-0.357666015625
200.061,-0.350830078125
200.071,-0.333984375
200.081,-0.290771484375
200.091,-0.22216796875
200.101,-0.149658203125
200.111,-0.10113525390625
200.121,-0.094970703125
200.129,-0.1324462890625
200.139,-0.2017822265625
200.149,-0.28271484375
200.159,-0.3525390625
200.169,-0.397216796875
200.179,-0.41455078125
200.189,-0.403564453125
200.199,-0.36962890625
200.209,-0.32861328125
200.219,-0.2958984375
200.229,-0.287353515625
200.239,-0.320068359375
200.249,-0.4033203125
200.259,-0.53125
200.269,-0.677734375
200.279,-0.802734375
200.289,-0.88037109375
200.299,-0.90869140625
200.309,-0.90234375
200.319,-0.8798828125
200.323,-0.95458984375
200.333,-1.0439453125
200.343,-1.12890625
200.353,-1.185546875
200.363,-1.197265625
200.373,-1.15625
200.383,-1.076171875
200.393,-0.98681640625
200.403,-0.9150390625
200.413,-0.87158203125
200.423,-0.85791015625
200.433,-0.86962890625
200.443,-0.888671875
200.453,-0.89794921875
200.463,-0.8916015625
200.473,-0.8740234375
200.482,-0.85302734375
200.492,-0.83740234375
200.502,-0.83056640625
200.512,-0.83154296875
200.522,-0.8427734375
200.532,-0.85986328125
200.542,-0.8720703125
200.552,-0.87060546875
200.562,-0.853515625
200.572,-0.82177734375
200.582,-0.78857421875
200.592,-0.76904296875
200.602,-0.76904296875
200.612,-0.7861328125
200.622,-0.81591796875
200.632,-0.84814453125
200.642,-0.87158203125
200.652,-0.88232421875
200.662,-0.8818359375
200.672,-0.8662109375
200.68,-0.84033203125
200.69,-0.814453125
200.7,-0.7958984375
200.71,-0.7880859375
200.72,-0.796875
200.73,-0.826171875
200.74,-0.87109375
200.75,-0.919921875
200.76,-0.958984375
200.77,-0.97314453125
200.78,-0.9560546875
200.79,-0.9169921875
200.8,-0.87451171875
200.81,-0.8408203125
200.82,-0.8193359375
200.83,-0.81298828125
200.84,-0.8212890625
200.85,-0.8369140625
200.86,-0.85302734375
200.87,-0.8642578125
200.879,-0.8603515625
200.889,-0.837890625
200.899,-0.810546875
200.909,-0.787109375
200.919,-0.76171875
200.929,-0.72412109375
200.939,-0.67333984375
200.949,-0.61865234375
200.959,-0.58203125
200.969,-0.58740234375
200.979,-0.6416015625
200.989,-0.7236328125
200.999,-0.7978515625
201.009,-0.8330078125
201.019,-0.8173828125
201.029,-0.76220703125
201.039,-0.697265625
201.049,-0.65087890625
201.059,-0.64111328125
201.069,-0.67138671875
201.073,-0.87890625
201.083,-0.830078125
201.093,-0.76220703125
201.103,-0.6962890625
201.113,-0.65478515625
201.123,-0.6572265625
201.133,-0.7021484375
201.143,-0.7626953125
201.153,-0.80517578125
201.163,-0.810546875
201.173,-0.779296875
201.183,-0.72607421875
201.193,-0.666015625
201.203,-0.61279296875
201.213,-0.572265625
201.223,-0.5458984375
201.232,-0.537109375
201.242,-0.55322265625
201.252,-0.5927734375
201.262,-0.6484375
201.272,-0.7177734375
201.282,-0.7939453125
201.292,-0.85693359375
201.302,-0.8837890625
201.312,-0.859375
201.322,-0.78076171875
201.332,-0.66552734375
201.342,-0.546875
201.352,-0.455322265625
201.362,-0.403564453125
201.372,-0.391845703125
201.382,-0.41552734375
201.392,-0.469482421875
201.402,-0.54443359375
201.412,-0.6318359375
201.422,-0.72607421875
201.43,-0.81640625
201.44,-0.88427734375
201.45,-0.9150390625
201.46,-0.90576171875
201.47,-0.86279296875
201.48,-0.79345703125
201.49,-0.7109375
201.5,-0.630859375
201.51,-0.56201171875
201.52,-0.498779296875
201.53,-0.4365234375
201.54,-0.38623046875
201.55,-0.36474609375
201.56,-0.373046875
201.57,-0.392578125
201.58,-0.40380859375
201.59,-0.395751953125
201.6,-0.36181640625
201.61,-0.300537109375
201.62,-0.2257080078125
201.629,-0.169921875
201.639,-0.1610107421875
201.649,-0.2060546875
201.659,-0.2958984375
201.669,-0.4052734375
201.679,-0.494873046875
201.689,-0.529296875
201.699,-0.495849609375
201.709,-0.40478515625
201.719,-0.278564453125
201.729,-0.1422119140625
201.739,-0.0142288208007812
201.749,0.09991455078125
201.759,0.19677734375
201.769,0.26513671875
201.779,0.292724609375
201.789,0.278076171875
201.799,0.2288818359375
201.809,0.1556396484375
201.819,0.06744384765625
201.823,-0.309326171875
201.833,-0.321044921875
201.843,-0.2919921875
201.853,-0.2230224609375
201.863,-0.1285400390625
201.873,-0.02838134765625
201.883,0.058990478515625
201.893,0.12042236328125
201.903,0.1507568359375
201.913,0.156494140625
201.923,0.1513671875
201.933,0.144775390625
201.943,0.139892578125
201.953,0.143798828125
201.963,0.1646728515625
201.973,0.1978759765625
201.982,0.2254638671875
201.992,0.2315673828125
202.002,0.2061767578125
202.012,0.1441650390625
202.022,0.053436279296875
202.032,-0.045166015625
202.042,-0.1307373046875
202.052,-0.192138671875
202.062,-0.2301025390625
202.072,-0.25048828125
202.082,-0.26025390625
202.092,-0.263671875
202.102,-0.252685546875
202.112,-0.213134765625
202.122,-0.141845703125
202.132,-0.044403076171875
202.142,0.07769775390625
202.152,0.214599609375
202.162,0.33154296875
202.172,0.383544921875
202.18,0.34130859375
202.19,0.2060546875
202.2,0.006988525390625
202.21,-0.210205078125
202.22,-0.399658203125
202.23,-0.52490234375
202.24,-0.56298828125
202.25,-0.5068359375
202.26,-0.364990234375
202.27,-0.1622314453125
202.28,0.054656982421875
202.29,0.2364501953125
202.3,0.35693359375
202.31,0.4130859375
202.32,0.408447265625
202.33,0.34814453125
202.34,0.242919921875
202.35,0.1041259765625
202.36,-0.057159423828125
202.37,-0.22998046875
202.379,-0.402587890625
202.389,-0.55712890625
202.399,-0.6689453125
202.409,-0.71337890625
202.419,-0.67431640625
202.429,-0.56005859375
202.439,-0.39892578125
202.449,-0.217529296875
202.459,-0.04339599609375
202.469,0.08978271484375
202.479,0.1578369140625
202.489,0.160888671875
202.499,0.12164306640625
202.509,0.0694580078125
202.519,0.02838134765625
202.529,0.0117263793945312
202.539,0.0174407958984375
202.549,0.0343017578125
202.559,0.059326171875
202.569,0.09063720703125
202.573,-0.1334228515625
202.583,-0.2281494140625
202.593,-0.271240234375
202.603,-0.245849609375
202.613,-0.164306640625
202.623,-0.05126953125
202.633,0.07366943359375
202.643,0.18212890625
202.653,0.2384033203125
202.663,0.229248046875
202.673,0.16845703125
202.683,0.07904052734375
202.693,-0.00850677490234375
202.703,-0.065673828125
202.713,-0.08453369140625
202.723,-0.07098388671875
202.732,-0.036376953125
202.742,0.000735282897949219
202.752,0.0232086181640625
202.762,0.0256195068359375
202.772,0.01129150390625
202.782,-0.010955810546875
202.792,-0.033233642578125
202.802,-0.0552978515625
202.812,-0.0775146484375
202.822,-0.096923828125
202.832,-0.11083984375
202.842,-0.11346435546875
202.852,-0.0970458984375
202.862,-0.06298828125
202.872,-0.0169219970703125
202.882,0.039642333984375
202.892,0.09521484375
202.902,0.1260986328125
202.912,0.12188720703125
202.922,0.08966064453125
202.93,0.039459228515625
202.94,-0.013580322265625
202.95,-0.052093505859375
202.96,-0.0758056640625
202.97,-0.09515380859375
202.98,-0.11065673828125
202.99,-0.1202392578125
203,-0.12359619140625
203.01,-0.11236572265625
203.02,-0.0831298828125
203.03,-0.054168701171875
203.04,-0.046478271484375
203.05,-0.0657958984375
203.06,-0.1109619140625
203.07,-0.1754150390625
203.08,-0.2369384765625
203.09,-0.2685546875
203.1,-0.2587890625
203.11,-0.2052001953125
203.12,-0.11212158203125
203.129,-0.00634002685546875
203.139,0.0732421875
203.149,0.1048583984375
203.159,0.08770751953125
203.169,0.0273284912109375
203.179,-0.07373046875
203.189,-0.217041015625
203.199,-0.390625
203.209,-0.56396484375
203.219,-0.689453125
203.229,-0.68994140625
203.239,-0.51220703125
203.249,-0.196044921875
203.259,0.16064453125
203.269,0.460693359375
203.279,0.6220703125
203.289,0.59228515625
203.299,0.384765625
203.309,0.08258056640625
203.319,-0.2313232421875
203.323,-0.97021484375
203.333,-1.0615234375
203.343,-1.158203125
203.353,-1.2412109375
203.363,-1.2783203125
203.373,-1.2080078125
203.383,-1
203.393,-0.671875
203.403,-0.27978515625
203.413,0.047943115234375
203.423,0.1885986328125
203.433,0.140869140625
203.443,0.0114212036132812
203.453,-0.06494140625
203.463,0.00824737548828125
203.473,0.190185546875
203.482,0.289794921875
203.492,0.1309814453125
203.502,-0.310791015625
203.512,-0.88818359375
203.522,-1.3291015625
203.532,-1.4189453125
203.542,-1.1689453125
203.552,-0.755859375
203.562,-0.3486328125
203.572,-0.041015625
203.582,0.125732421875
203.592,0.14892578125
203.602,0.062042236328125
203.612,-0.08740234375
203.622,-0.261474609375
203.632,-0.4345703125
203.642,-0.5810546875
203.652,-0.6962890625
203.662,-0.80615234375
203.672,-0.919921875
203.68,-0.99560546875
203.69,-0.98388671875
203.7,-0.87646484375
203.71,-0.70654296875
203.72,-0.52587890625
203.73,-0.373779296875
203.74,-0.266357421875
203.75,-0.201416015625
203.76,-0.163818359375
203.77,-0.1409912109375
203.78,-0.126220703125
203.79,-0.10662841796875
203.8,-0.06982421875
203.81,-0.0243682861328125
203.82,0.00586318969726562
203.83,0.00202751159667969
203.84,-0.03228759765625
203.85,-0.074951171875
203.86,-0.107421875
203.87,-0.1275634765625
203.879,-0.1451416015625
203.889,-0.1702880859375
203.899,-0.2034912109375
203.909,-0.2315673828125
203.919,-0.236328125
203.929,-0.2098388671875
203.939,-0.1636962890625
203.949,-0.12060546875
203.959,-0.0950927734375
203.969,-0.0819091796875
203.979,-0.06341552734375
203.989,-0.0274505615234375
203.999,0.0229339599609375
204.009,0.0704345703125
204.019,0.09429931640625
204.029,0.08203125
204.039,0.03106689453125
204.049,-0.05218505859375
204.059,-0.1497802734375
204.069,-0.2384033203125
204.073,-0.1595458984375
204.083,-0.10333251953125
204.093,-0.0760498046875
204.103,-0.08917236328125
204.113,-0.1448974609375
204.123,-0.23486328125
204.133,-0.33740234375
204.143,-0.425048828125
204.153,-0.4794921875
204.163,-0.496826171875
204.173,-0.47900390625
204.183,-0.42919921875
204.193,-0.35595703125
204.203,-0.276123046875
204.213,-0.2117919921875
204.223,-0.1759033203125
204.232,-0.168701171875
204.242,-0.1861572265625
204.252,-0.2227783203125
204.262,-0.2626953125
204.272,-0.28515625
204.282,-0.279052734375
204.292,-0.2442626953125
204.302,-0.187744140625
204.312,-0.12451171875
204.322,-0.07275390625
204.332,-0.04632568359375
204.342,-0.053192138671875
204.352,-0.0931396484375
204.362,-0.1566162109375
204.372,-0.2298583984375
204.382,-0.296630859375
204.392,-0.339111328125
204.402,-0.347900390625
204.412,-0.324462890625
204.422,-0.274658203125
204.43,-0.2088623046875
204.44,-0.1337890625
204.45,-0.048248291015625
204.46,0.04022216796875
204.47,0.10772705078125
204.48,0.130615234375
204.49,0.096923828125
204.5,0.00728988647460938
204.51,-0.124267578125
204.52,-0.2783203125
204.53,-0.43896484375
204.54,-0.5849609375
204.55,-0.68798828125
204.56,-0.73046875
204.57,-0.71337890625
204.58,-0.6494140625
204.59,-0.55322265625
204.6,-0.435791015625
204.61,-0.306884765625
204.62,-0.182373046875
204.629,-0.080322265625
204.639,-0.0172576904296875
204.649,-0.000836372375488281
204.659,-0.0233612060546875
204.669,-0.0677490234375
204.679,-0.11614990234375
204.689,-0.1572265625
204.699,-0.190185546875
204.709,-0.21923828125
204.719,-0.2464599609375
204.729,-0.272705078125
204.739,-0.3056640625
204.749,-0.355224609375
204.759,-0.419189453125
204.769,-0.489013671875
204.779,-0.556640625
204.789,-0.61279296875
204.799,-0.6494140625
204.809,-0.6640625
204.819,-0.65283203125
204.823,-0.17626953125
204.833,-0.038818359375
204.843,0.0941162109375
204.853,0.2205810546875
204.863,0.336669921875
204.873,0.4326171875
204.883,0.50244140625
204.893,0.5498046875
204.903,0.576171875
204.913,0.5771484375
204.923,0.55126953125
204.933,0.5009765625
204.943,0.433837890625
204.953,0.359130859375
204.963,0.287109375
204.973,0.2259521484375
204.981,0.1822509765625
204.991,0.1593017578125
205.001,0.154052734375
205.011,0.1590576171875
205.021,0.1683349609375
205.031,0.176025390625
205.041,0.173095703125
205.051,0.153076171875
205.061,0.11944580078125
205.071,0.0853271484375
205.081,0.06915283203125
205.091,0.08258056640625
205.101,0.12469482421875
205.111,0.18798828125
205.121,0.25927734375
205.131,0.322265625
205.141,0.365966796875
205.151,0.387939453125
205.161,0.3916015625
205.171,0.384521484375
205.18,0.36962890625
205.19,0.344482421875
205.2,0.309814453125
205.21,0.2666015625
205.22,0.212646484375
205.23,0.1439208984375
205.24,0.05712890625
205.25,-0.0418701171875
205.26,-0.142333984375
205.27,-0.237548828125
205.28,-0.320068359375
205.29,-0.38427734375
205.3,-0.436279296875
205.31,-0.482421875
205.32,-0.52392578125
205.33,-0.560546875
205.34,-0.58349609375
205.35,-0.58349609375
205.36,-0.56396484375
205.37,-0.5380859375
205.379,-0.52392578125
205.389,-0.53955078125
205.399,-0.5966796875
205.409,-0.69775390625
205.419,-0.83251953125
205.429,-0.978515625
205.439,-1.1142578125
205.449,-1.2236328125
205.459,-1.2919921875
205.469,-1.3212890625
205.479,-1.3251953125
205.489,-1.3154296875
205.499,-1.296875
205.509,-1.271484375
205.519,-1.232421875
205.529,-1.185546875
205.539,-1.15625
205.549,-1.1669921875
205.559,-1.2265625
205.569,-1.326171875
205.573,-0.94580078125
205.583,-0.7978515625
205.593,-0.78759765625
205.603,-0.9169921875
205.613,-1.125
205.623,-1.322265625
205.633,-1.4326171875
205.643,-1.443359375
205.653,-1.3984375
205.663,-1.3583984375
205.673,-1.330078125
205.683,-1.2607421875
205.693,-1.103515625
205.703,-0.861328125
205.713,-0.57373046875
205.723,-0.279052734375
205.731,0.00173377990722656
205.741,0.26123046875
205.751,0.496826171875
205.761,0.69482421875
205.771,0.81298828125
205.781,0.7822265625
205.791,0.55615234375
205.801,0.1707763671875
205.811,-0.275390625
205.821,-0.69140625
205.831,-1.0205078125
205.841,-1.2392578125
205.851,-1.365234375
205.861,-1.4375
205.871,-1.4765625
205.881,-1.4912109375
205.891,-1.4931640625
205.901,-1.4921875
205.911,-1.4775390625
205.921,-1.431640625
205.93,-1.3447265625
205.94,-1.23046875
205.95,-1.1171875
205.96,-1.0322265625
205.97,-0.984375
205.98,-0.96240234375
205.99,-0.95263671875
206,-0.9462890625
206.01,-0.93359375
206.02,-0.90478515625
206.03,-0.86328125
206.04,-0.82177734375
206.05,-0.79248046875
206.06,-0.78564453125
206.07,-0.80419921875
206.08,-0.8408203125
206.09,-0.884765625
206.1,-0.9287109375
206.11,-0.96923828125
206.12,-0.99951171875
206.129,-1.0166015625
206.139,-1.0263671875
206.149,-1.0302734375
206.159,-1.02734375
206.169,-1.0166015625
206.179,-1.0009765625
206.189,-0.98193359375
206.199,-0.9619140625
206.209,-0.94384765625
206.219,-0.92578125
206.229,-0.908203125
206.239,-0.896484375
206.249,-0.89794921875
206.259,-0.90966796875
206.269,-0.9228515625
206.279,-0.93310546875
206.289,-0.9345703125
206.299,-0.9248046875
206.309,-0.90673828125
206.319,-0.88671875
206.323,-0.947265625
206.333,-1.0009765625
206.343,-1.05078125
206.353,-1.0859375
206.363,-1.09375
206.373,-1.0693359375
206.383,-1.017578125
206.393,-0.95458984375
206.403,-0.896484375
206.413,-0.8564453125
206.423,-0.84619140625
206.433,-0.86767578125
206.443,-0.91064453125
206.453,-0.96875
206.463,-1.03515625
206.473,-1.0947265625
206.481,-1.134765625
206.491,-1.1484375
206.501,-1.1337890625
206.511,-1.09375
206.521,-1.0390625
206.531,-0.982421875
206.541,-0.93701171875
206.551,-0.91162109375
206.561,-0.916015625
206.571,-0.95458984375
206.581,-1.0078125
206.591,-1.0546875
206.601,-1.0947265625
206.611,-1.1240234375
206.621,-1.1240234375
206.631,-1.0986328125
206.641,-1.056640625
206.651,-1.001953125
206.661,-0.9462890625
206.671,-0.904296875
206.68,-0.87744140625
206.69,-0.8671875
206.7,-0.89013671875
206.71,-0.943359375
206.72,-0.9921875
206.73,-1.0166015625
206.74,-1.0341796875
206.75,-1.0556640625
206.76,-1.05859375
206.77,-1.0263671875
206.78,-0.9853515625
206.79,-0.97265625
206.8,-0.99072265625
206.81,-1.0107421875
206.82,-1.0234375
206.83,-1.046875
206.84,-1.1025390625
206.85,-1.17578125
206.86,-1.21484375
206.87,-1.17578125
206.879,-1.072265625
206.889,-0.970703125
206.899,-0.92919921875
206.909,-0.94091796875
206.919,-0.9560546875
206.929,-0.95458984375
206.939,-0.96728515625
206.949,-1.03125
206.959,-1.125
206.969,-1.18359375
206.979,-1.166015625
206.989,-1.1044921875
206.999,-1.068359375
207.009,-1.0849609375
207.019,-1.111328125
207.029,-1.0869140625
207.039,-1.0009765625
207.049,-0.90625
207.059,-0.87109375
207.069,-0.91259765625
207.073,-0.7958984375
207.083,-0.79541015625
207.093,-0.8818359375
207.103,-1.0029296875
207.113,-1.0810546875
207.123,-1.06640625
207.133,-0.95703125
207.143,-0.7958984375
207.153,-0.64208984375
207.163,-0.55029296875
207.173,-0.5546875
207.183,-0.66796875
207.193,-0.87890625
207.203,-1.1474609375
207.213,-1.412109375
207.223,-1.607421875
207.231,-1.6884765625
207.241,-1.63671875
207.251,-1.4501953125
207.261,-1.1484375
207.271,-0.77392578125
207.281,-0.389892578125
207.291,-0.06640625
207.301,0.1357421875
207.311,0.1812744140625
207.321,0.06591796875
207.331,-0.1854248046875
207.341,-0.5205078125
207.351,-0.8642578125
207.361,-1.1298828125
207.371,-1.2470703125
207.381,-1.1865234375
207.391,-0.96484375
207.401,-0.63134765625
207.411,-0.2431640625
207.421,0.14013671875
207.43,0.45751953125
207.44,0.66650390625
207.45,0.75341796875
207.46,0.7197265625
207.47,0.576171875
207.48,0.351806640625
207.49,0.081787109375
207.5,-0.19677734375
207.51,-0.4365234375
207.52,-0.58349609375
207.53,-0.60595703125
207.54,-0.51513671875
207.55,-0.35986328125
207.56,-0.200439453125
207.57,-0.08636474609375
207.58,-0.034820556640625
207.59,-0.0296173095703125
207.6,-0.0439453125
207.61,-0.05987548828125
207.62,-0.06475830078125
207.629,-0.04327392578125
207.639,0.0183868408203125
207.649,0.12457275390625
207.659,0.253173828125
207.669,0.347412109375
207.679,0.35546875
207.689,0.27197265625
207.699,0.132568359375
207.709,-0.0132980346679688
207.719,-0.1201171875
207.729,-0.1566162109375
207.739,-0.12005615234375
207.749,-0.050567626953125
207.759,-0.0205535888671875
207.769,-0.09368896484375
207.779,-0.284423828125
207.789,-0.54833984375
207.799,-0.80078125
207.809,-0.95166015625
207.819,-0.93896484375
207.823,0.107666015625
207.833,0.10906982421875
207.843,0.05511474609375
207.853,0.00299072265625
207.863,-0.0126953125
207.873,0.00413131713867188
207.883,0.0251007080078125
207.893,0.0247955322265625
207.903,-0.00113391876220703
207.913,-0.03924560546875
207.923,-0.0728759765625
207.933,-0.09100341796875
207.943,-0.09136962890625
207.953,-0.07940673828125
207.963,-0.0599365234375
207.973,-0.03375244140625
207.981,-0.0021820068359375
207.991,0.02642822265625
208.001,0.036529541015625
208.011,0.0175018310546875
208.021,-0.02667236328125
208.031,-0.0816650390625
208.041,-0.129638671875
208.051,-0.153564453125
208.061,-0.142578125
208.071,-0.0999755859375
208.081,-0.041351318359375
208.091,0.019622802734375
208.101,0.07568359375
208.111,0.11834716796875
208.121,0.1356201171875
208.131,0.11700439453125
208.141,0.058868408203125
208.151,-0.0275726318359375
208.161,-0.11767578125
208.171,-0.1890869140625
208.18,-0.233154296875
208.19,-0.2464599609375
208.2,-0.2247314453125
208.21,-0.172119140625
208.22,-0.104736328125
208.23,-0.04193115234375
208.24,0.0083770751953125
208.25,0.05755615234375
208.26,0.12152099609375
208.27,0.1932373046875
208.28,0.2392578125
208.29,0.2275390625
208.3,0.1549072265625
208.31,0.048553466796875
208.32,-0.05670166015625
208.33,-0.1385498046875
208.34,-0.186279296875
208.35,-0.1893310546875
208.36,-0.138916015625
208.37,-0.042327880859375
208.379,0.0673828125
208.389,0.148193359375
208.399,0.1756591796875
208.409,0.1533203125
208.419,0.10009765625
208.429,0.0355224609375
208.439,-0.024017333984375
208.449,-0.061920166015625
208.459,-0.0623779296875
208.469,-0.020050048828125
208.479,0.047698974609375
208.489,0.10748291015625
208.499,0.1348876953125
208.509,0.1292724609375
208.519,0.102783203125
208.529,0.06732177734375
208.539,0.033477783203125
208.549,0.0101318359375
208.559,-0.000632286071777344
208.569,0.000191330909729004
208.573,0.1446533203125
208.583,0.124267578125
208.593,0.0782470703125
208.603,0.01654052734375
208.613,-0.040130615234375
208.623,-0.06689453125
208.633,-0.04937744140625
208.643,0.007720947265625
208.653,0.08441162109375
208.663,0.1580810546875
208.673,0.2117919921875
208.683,0.2342529296875
208.693,0.2225341796875
208.703,0.1846923828125
208.713,0.1348876953125
208.723,0.09112548828125
208.731,0.06842041015625
208.741,0.0673828125
208.751,0.0751953125
208.761,0.08001708984375
208.771,0.07562255859375
208.781,0.0555419921875
208.791,0.020233154296875
208.801,-0.0167083740234375
208.811,-0.0438232421875
208.821,-0.0599365234375
208.831,-0.063232421875
208.841,-0.054290771484375
208.851,-0.046112060546875
208.861,-0.04888916015625
208.871,-0.0584716796875
208.881,-0.07080078125
208.891,-0.08551025390625
208.901,-0.09503173828125
208.911,-0.09149169921875
208.921,-0.07232666015625
208.93,-0.03436279296875
208.94,0.0193939208984375
208.95,0.07269287109375
208.96,0.11224365234375
208.97,0.136962890625
208.98,0.1434326171875
208.99,0.126708984375
209,0.09014892578125
209.01,0.038421630859375
209.02,-0.0189208984375
209.03,-0.062255859375
209.04,-0.08056640625
209.05,-0.07470703125
209.06,-0.0435791015625
209.07,0.00916290283203125
209.08,0.07257080078125
209.09,0.1365966796875
209.1,0.185546875
209.11,0.201416015625
209.12,0.1810302734375
209.129,0.131591796875
209.139,0.06463623046875
209.149,0.000697612762451172
209.159,-0.045013427734375
209.169,-0.0697021484375
209.179,-0.073486328125
209.189,-0.059356689453125
209.199,-0.035491943359375
209.209,-0.0120162963867188
209.219,0.00661087036132812
209.229,0.023651123046875
209.239,0.040313720703125
209.249,0.057861328125
209.259,0.08184814453125
209.269,0.1134033203125
209.279,0.1480712890625
209.289,0.17626953125
209.299,0.185302734375
209.309,0.169189453125
209.319,0.1304931640625
209.323,-0.07904052734375
209.333,-0.046051025390625
209.343,0.01568603515625
209.353,0.09344482421875
209.363,0.1729736328125
209.373,0.234130859375
209.383,0.25634765625
209.393,0.23291015625
209.403,0.176513671875
209.413,0.10321044921875
209.423,0.023162841796875
209.433,-0.0506591796875
209.443,-0.09686279296875
209.453,-0.099365234375
209.463,-0.06219482421875
209.473,-0.00372886657714844
209.481,0.05926513671875
209.491,0.11480712890625
209.501,0.1514892578125
209.511,0.1610107421875
209.521,0.1400146484375
209.531,0.08941650390625
209.541,0.0189361572265625
209.551,-0.05462646484375
209.561,-0.11590576171875
209.571,-0.15283203125
209.581,-0.1556396484375
209.591,-0.12237548828125
209.601,-0.06182861328125
209.611,0.01214599609375
209.621,0.08502197265625
209.631,0.1416015625
209.641,0.1724853515625
209.651,0.1790771484375
209.661,0.1650390625
209.671,0.1285400390625
209.68,0.07080078125
209.69,0.0043182373046875
209.7,-0.0528564453125
209.71,-0.08721923828125
209.72,-0.09344482421875
209.73,-0.07586669921875
209.74,-0.04736328125
209.75,-0.0190277099609375
209.76,0.0102462768554688
209.77,0.04754638671875
209.78,0.09234619140625
209.79,0.1368408203125
209.8,0.17626953125
209.81,0.20654296875
209.82,0.21826171875
209.83,0.2010498046875
209.84,0.153564453125
209.85,0.083251953125
209.86,0.00230979919433594
209.87,-0.073974609375
209.874,-0.05126953125
209.884,0.031585693359375
209.894,0.1165771484375
209.904,0.18310546875
209.914,0.2191162109375
209.924,0.2222900390625
209.934,0.194580078125
209.944,0.1414794921875
209.954,0.0765380859375
209.964,0.016754150390625
209.974,-0.0267486572265625
209.984,-0.0523681640625
209.994,-0.0640869140625
210.004,-0.0692138671875
210.014,-0.072265625
210.024,-0.06610107421875
210.032,-0.040374755859375
210.042,0.00539016723632812
210.052,0.061370849609375
210.062,0.11248779296875
210.072,0.146484375
210.082,0.1539306640625
210.092,0.1270751953125
210.102,0.06787109375
210.112,-0.0123214721679688
210.122,-0.09698486328125
210.132,-0.1649169921875
210.142,-0.198486328125
210.152,-0.1895751953125
210.162,-0.1416015625
210.172,-0.0687255859375
210.182,0.0134735107421875
210.192,0.0908203125
210.202,0.1478271484375
210.212,0.1748046875
210.222,0.170654296875
210.231,0.13818359375
210.241,0.08685302734375
210.251,0.03204345703125
210.261,-0.01373291015625
210.271,-0.0465087890625
210.281,-0.07086181640625
210.291,-0.09429931640625
210.301,-0.11669921875
210.311,-0.131591796875
210.321,-0.1334228515625
210.331,-0.116943359375
210.341,-0.0836181640625
210.351,-0.045989990234375
210.361,-0.0154876708984375
210.371,0.00472640991210938
210.381,0.0108871459960938
210.391,-0.00118064880371094
210.401,-0.0296478271484375
210.411,-0.07122802734375
210.421,-0.1158447265625
210.43,-0.140380859375
210.44,-0.13134765625
210.45,-0.09710693359375
210.46,-0.04827880859375
210.47,0.00783538818359375
210.48,0.0552978515625
210.49,0.0775146484375
210.5,0.07159423828125
210.51,0.038055419921875
210.52,-0.026885986328125
210.53,-0.11273193359375
210.54,-0.186767578125
210.55,-0.2205810546875
210.56,-0.20849609375
210.57,-0.15869140625
210.58,-0.0877685546875
210.59,-0.026092529296875
210.6,-0.00587844848632812
210.61,-0.0357666015625
210.62,-0.10015869140625
210.624,-0.353515625
210.634,-0.3525390625
210.644,-0.361572265625
210.654,-0.364013671875
210.664,-0.335205078125
210.674,-0.271728515625
210.684,-0.1866455078125
210.694,-0.0843505859375
210.704,0.0296783447265625
210.714,0.126708984375
210.724,0.1695556640625
210.734,0.1446533203125
210.744,0.06951904296875
210.754,-0.0252685546875
210.764,-0.11834716796875
210.774,-0.2041015625
210.782,-0.280517578125
210.792,-0.335693359375
210.802,-0.358642578125
210.812,-0.3583984375
210.822,-0.35400390625
210.832,-0.349853515625
210.842,-0.33544921875
210.852,-0.30712890625
210.862,-0.277587890625
210.872,-0.266357421875
210.882,-0.276123046875
210.892,-0.27880859375
210.902,-0.2401123046875
210.912,-0.15673828125
210.922,-0.0589599609375
210.932,0.0157318115234375
210.942,0.041717529296875
210.952,0.0110321044921875
210.962,-0.0703125
210.972,-0.1873779296875
210.981,-0.309326171875
210.991,-0.3955078125
211.001,-0.422607421875
211.011,-0.39404296875
211.021,-0.33251953125
211.031,-0.27490234375
211.041,-0.24560546875
211.051,-0.2362060546875
211.061,-0.2261962890625
211.071,-0.2069091796875
211.081,-0.18359375
211.091,-0.1702880859375
211.101,-0.17919921875
211.111,-0.207763671875
211.121,-0.23974609375
211.131,-0.257568359375
211.141,-0.2498779296875
211.151,-0.2197265625
211.161,-0.1878662109375
211.171,-0.17333984375
211.18,-0.1754150390625
211.19,-0.1851806640625
211.2,-0.2021484375
211.21,-0.22900390625
211.22,-0.27392578125
211.23,-0.3564453125
211.24,-0.48828125
211.25,-0.6484375
211.26,-0.7900390625
211.27,-0.86669921875
211.28,-0.86669921875
211.29,-0.8232421875
211.3,-0.77978515625
211.31,-0.7490234375
211.32,-0.71728515625
211.33,-0.67626953125
211.34,-0.63671875
211.35,-0.6044921875
211.36,-0.58154296875
211.37,-0.58349609375
211.375,-1.02734375
211.385,-0.99169921875
211.395,-0.88427734375
211.405,-0.7265625
211.415,-0.55224609375
211.425,-0.3994140625
211.435,-0.292724609375
211.445,-0.2376708984375
211.455,-0.23291015625
211.465,-0.28564453125
211.475,-0.395751953125
211.485,-0.53125
211.495,-0.6552734375
211.505,-0.763671875
211.515,-0.86669921875
211.525,-0.95703125
211.532,-1.0166015625
211.542,-1.03125
211.552,-0.98974609375
211.562,-0.8974609375
211.572,-0.79052734375
211.582,-0.70947265625
211.592,-0.67529296875
211.602,-0.69921875
211.612,-0.78466796875
211.622,-0.90380859375
211.632,-1.0126953125
211.642,-1.0830078125
211.652,-1.099609375
211.662,-1.0595703125
211.672,-0.97216796875
211.682,-0.85888671875
211.692,-0.75537109375
211.702,-0.68896484375
211.712,-0.66552734375
211.722,-0.67578125
211.731,-0.71435546875
211.741,-0.78076171875
211.751,-0.8671875
211.761,-0.95751953125
211.771,-1.0341796875
211.781,-1.0849609375
211.791,-1.10546875
211.801,-1.0908203125
211.811,-1.037109375
211.821,-0.939453125
211.831,-0.80322265625
211.841,-0.65478515625
211.851,-0.53076171875
211.861,-0.46435546875
211.871,-0.479736328125
211.881,-0.5849609375
211.891,-0.75927734375
211.901,-0.95751953125
211.911,-1.1376953125
211.921,-1.2724609375
211.93,-1.3408203125
211.94,-1.33203125
211.95,-1.2509765625
211.96,-1.1279296875
211.97,-0.99755859375
211.98,-0.890625
211.99,-0.8271484375
212,-0.81396484375
212.01,-0.8369140625
212.02,-0.86865234375
212.03,-0.88818359375
212.04,-0.89111328125
212.05,-0.8818359375
212.06,-0.8642578125
212.07,-0.84033203125
212.08,-0.810546875
212.09,-0.77685546875
212.1,-0.74609375
212.11,-0.7236328125
212.12,-0.70947265625
212.124,-0.75048828125
212.134,-0.79248046875
212.144,-0.84521484375
212.154,-0.89208984375
212.164,-0.9130859375
212.174,-0.89599609375
212.184,-0.84130859375
212.194,-0.755859375
212.204,-0.650390625
212.214,-0.541015625
212.224,-0.444091796875
212.234,-0.371826171875
212.244,-0.338623046875
212.254,-0.36376953125
212.264,-0.453857421875
212.274,-0.587890625
212.282,-0.72265625
212.292,-0.80615234375
212.302,-0.81298828125
212.312,-0.755859375
212.322,-0.65966796875
212.332,-0.55029296875
212.342,-0.453857421875
212.352,-0.3818359375
212.362,-0.33544921875
212.372,-0.32763671875
212.382,-0.376220703125
212.392,-0.470703125
212.402,-0.5693359375
212.412,-0.62890625
212.422,-0.6259765625
212.432,-0.5576171875
212.442,-0.437255859375
212.452,-0.28125
212.462,-0.10870361328125
212.472,0.057342529296875
212.481,0.1907958984375
212.491,0.26904296875
212.501,0.279541015625
212.511,0.2266845703125
212.521,0.13134765625
212.531,0.02532958984375
212.541,-0.06903076171875
212.551,-0.149169921875
212.561,-0.2154541015625
212.571,-0.253662109375
212.581,-0.2498779296875
212.591,-0.210205078125
212.601,-0.15625
212.611,-0.1077880859375
212.621,-0.075439453125
212.631,-0.06756591796875
212.641,-0.08990478515625
212.651,-0.1383056640625
212.661,-0.2001953125
212.671,-0.258056640625
212.68,-0.296875
212.69,-0.314208984375
212.7,-0.317626953125
212.71,-0.30712890625
212.72,-0.271484375
212.73,-0.205810546875
212.74,-0.12152099609375
212.75,-0.034576416015625
212.76,0.032257080078125
212.77,0.041473388671875
212.78,-0.029022216796875
212.79,-0.1605224609375
212.8,-0.309326171875
212.81,-0.42578125
212.82,-0.471435546875
212.83,-0.44287109375
212.84,-0.3642578125
212.85,-0.258544921875
212.86,-0.139892578125
212.87,-0.0241241455078125
212.875,0.0137252807617188
212.885,-0.049072265625
212.895,-0.10321044921875
212.905,-0.1495361328125
212.915,-0.185791015625
212.925,-0.20166015625
212.935,-0.19189453125
212.945,-0.1630859375
212.955,-0.12384033203125
212.965,-0.08160400390625
212.975,-0.048797607421875
212.985,-0.03558349609375
212.995,-0.040252685546875
213.005,-0.05517578125
213.015,-0.07232666015625
213.025,-0.07916259765625
213.032,-0.0654296875
213.042,-0.031829833984375
213.052,0.0154342651367188
213.062,0.06536865234375
213.072,0.09747314453125
213.082,0.0897216796875
213.092,0.032073974609375
213.102,-0.0673828125
213.112,-0.1854248046875
213.122,-0.295654296875
213.132,-0.383056640625
213.142,-0.446533203125
213.152,-0.49072265625
213.162,-0.517578125
213.172,-0.517578125
213.182,-0.47021484375
213.192,-0.36572265625
213.202,-0.2186279296875
213.212,-0.062744140625
213.222,0.060791015625
213.231,0.1263427734375
213.241,0.130126953125
213.251,0.08306884765625
213.261,0.0126419067382812
213.271,-0.04608154296875
213.281,-0.07421875
213.291,-0.07196044921875
213.301,-0.04827880859375
213.311,-0.0258026123046875
213.321,-0.03155517578125
213.331,-0.06707763671875
213.341,-0.11090087890625
213.351,-0.1441650390625
213.361,-0.1612548828125
213.371,-0.16552734375
213.381,-0.158447265625
213.391,-0.1348876953125
213.401,-0.0843505859375
213.411,0.00508880615234375
213.421,0.130126953125
213.43,0.268310546875
213.44,0.3935546875
213.45,0.484619140625
213.46,0.53173828125
213.47,0.533203125
213.48,0.491943359375
213.49,0.413330078125
213.5,0.304443359375
213.51,0.169189453125
213.52,0.01690673828125
213.53,-0.1318359375
213.54,-0.254638671875
213.55,-0.335205078125
213.56,-0.360595703125
213.57,-0.322265625
213.58,-0.21875
213.59,-0.0679931640625
213.6,0.09014892578125
213.61,0.2099609375
213.62,0.26416015625
213.624,-0.1004638671875
213.634,-0.13623046875
213.644,-0.11492919921875
213.654,-0.053009033203125
213.664,0.022705078125
213.674,0.087646484375
213.684,0.119140625
213.694,0.10400390625
213.704,0.0504150390625
213.714,-0.02130126953125
213.724,-0.095947265625
213.734,-0.1640625
213.744,-0.216064453125
213.754,-0.248046875
213.764,-0.26171875
213.774,-0.251953125
213.782,-0.20751953125
213.792,-0.130615234375
213.802,-0.039459228515625
213.812,0.041351318359375
213.822,0.08966064453125
213.832,0.0947265625
213.842,0.059326171875
213.852,-0.008331298828125
213.862,-0.10162353515625
213.872,-0.21337890625
213.882,-0.326416015625
213.892,-0.41455078125
213.902,-0.455810546875
213.912,-0.437744140625
213.922,-0.350830078125
213.932,-0.199951171875
213.942,-0.0177154541015625
213.952,0.1455078125
213.962,0.248291015625
213.972,0.269287109375
213.981,0.20458984375
213.991,0.06878662109375
214.001,-0.0992431640625
214.011,-0.250732421875
214.021,-0.351318359375
214.031,-0.3896484375
214.041,-0.361572265625
214.051,-0.26123046875
214.061,-0.09954833984375
214.071,0.08502197265625
214.081,0.247314453125
214.091,0.357666015625
214.101,0.39990234375
214.111,0.370361328125
214.121,0.281005859375
214.131,0.153564453125
214.141,0.0124359130859375
214.151,-0.1199951171875
214.161,-0.22802734375
214.171,-0.302978515625
214.179,-0.3359375
214.189,-0.314697265625
214.199,-0.241943359375
214.209,-0.143310546875
214.219,-0.048431396484375
214.229,0.0281829833984375
214.239,0.07818603515625
214.249,0.09014892578125
214.259,0.0543212890625
214.269,-0.0252532958984375
214.279,-0.1263427734375
214.289,-0.218994140625
214.299,-0.281982421875
214.309,-0.309814453125
214.319,-0.306884765625
214.329,-0.26953125
214.339,-0.18505859375
214.349,-0.061004638671875
214.359,0.06365966796875
214.369,0.1407470703125
214.373,-0.220947265625
214.383,-0.336669921875
214.393,-0.419677734375
214.403,-0.447265625
214.413,-0.4140625
214.423,-0.336669921875
214.433,-0.2457275390625
214.443,-0.163818359375
214.453,-0.0931396484375
214.463,-0.0266265869140625
214.473,0.031005859375
214.483,0.057159423828125
214.493,0.0296478271484375
214.503,-0.046783447265625
214.513,-0.13720703125
214.523,-0.2015380859375
214.532,-0.220703125
214.542,-0.2042236328125
214.552,-0.180908203125
214.562,-0.1746826171875
214.572,-0.1826171875
214.582,-0.18212890625
214.592,-0.1607666015625
214.602,-0.12841796875
214.612,-0.10491943359375
214.622,-0.102783203125
214.632,-0.1165771484375
214.642,-0.12939453125
214.652,-0.1307373046875
214.662,-0.12451171875
214.672,-0.1199951171875
214.682,-0.1229248046875
214.692,-0.133544921875
214.702,-0.14697265625
214.712,-0.1551513671875
214.722,-0.1480712890625
214.731,-0.1199951171875
214.741,-0.0836181640625
214.751,-0.07171630859375
214.761,-0.1112060546875
214.771,-0.2001953125
214.781,-0.310546875
214.791,-0.40380859375
214.801,-0.447509765625
214.811,-0.427490234375
214.821,-0.348876953125
214.831,-0.2310791015625
214.841,-0.109619140625
214.851,-0.0238800048828125
214.861,0.007415771484375
214.871,-0.00533294677734375
214.881,-0.035308837890625
214.891,-0.057708740234375
214.901,-0.06658935546875
214.911,-0.0771484375
214.921,-0.10589599609375
214.929,-0.1544189453125
214.939,-0.21142578125
214.949,-0.261474609375
214.959,-0.2890625
214.969,-0.28173828125
214.979,-0.2327880859375
214.989,-0.1507568359375
214.999,-0.0634765625
215.009,-0.00539398193359375
215.019,-0.00122833251953125
215.029,-0.058990478515625
215.039,-0.167236328125
215.049,-0.29638671875
215.059,-0.413818359375
215.069,-0.497314453125
215.079,-0.53759765625
215.089,-0.5390625
215.099,-0.515625
215.109,-0.484130859375
215.119,-0.458740234375
215.123,-0.28857421875
215.133,-0.1939697265625
215.143,-0.09576416015625
215.153,-0.0144500732421875
215.163,0.03167724609375
215.173,0.029510498046875
215.183,-0.02618408203125
215.193,-0.1258544921875
215.203,-0.2471923828125
215.213,-0.361328125
215.223,-0.4375
215.233,-0.451416015625
215.243,-0.394287109375
215.253,-0.27587890625
215.263,-0.12371826171875
215.273,0.0264129638671875
215.282,0.1458740234375
215.292,0.220458984375
215.302,0.2470703125
215.312,0.2294921875
215.322,0.1717529296875
215.332,0.07366943359375
215.342,-0.06524658203125
215.352,-0.2412109375
215.362,-0.446044921875
215.372,-0.6630859375
215.382,-0.86474609375
215.392,-1.0166015625
215.402,-1.08984375
215.412,-1.0703125
215.422,-0.95849609375
215.432,-0.7724609375
215.442,-0.5419921875
215.452,-0.302734375
215.462,-0.08758544921875
215.472,0.0816650390625
215.481,0.1986083984375
215.491,0.271484375
215.501,0.319091796875
215.511,0.3623046875
215.521,0.413818359375
215.531,0.472900390625
215.541,0.5263671875
215.551,0.5595703125
215.561,0.56201171875
215.571,0.5322265625
215.581,0.47509765625
215.591,0.400390625
215.601,0.31640625
215.611,0.2275390625
215.621,0.1397705078125
215.631,0.06292724609375
215.641,0.00168800354003906
215.651,-0.047454833984375
215.661,-0.090576171875
215.671,-0.1346435546875
215.679,-0.187255859375
215.689,-0.251953125
215.699,-0.326416015625
215.709,-0.402587890625
215.719,-0.46533203125
215.729,-0.497314453125
215.739,-0.48779296875
215.749,-0.44189453125
215.759,-0.380126953125
215.769,-0.322998046875
215.779,-0.2822265625
215.789,-0.275146484375
215.799,-0.327392578125
215.809,-0.4423828125
215.819,-0.59326171875
215.829,-0.76123046875
215.839,-0.93798828125
215.849,-1.111328125
215.859,-1.2568359375
215.869,-1.3525390625
215.873,-1.2568359375
215.883,-1.1884765625
215.893,-1.185546875
215.903,-1.2763671875
215.913,-1.4609375
215.923,-1.7255859375
215.933,-2.05078125
215.943,-2.412109375
215.953,-2.77734375
215.963,-3.08984375
215.973,-3.26953125
215.983,-3.240234375
215.993,-2.974609375
216.003,-2.51171875
216.013,-1.9296875
216.023,-1.32421875
216.032,-0.7841796875
216.042,-0.3759765625
216.052,-0.1451416015625
216.062,-0.11590576171875
216.072,-0.284423828125
216.082,-0.6142578125
216.092,-1.02734375
216.102,-1.404296875
216.112,-1.6337890625
216.122,-1.68359375
216.132,-1.6123046875
216.142,-1.515625
216.152,-1.4482421875
216.162,-1.42578125
216.172,-1.4453125
216.182,-1.490234375
216.192,-1.541015625
216.202,-1.5849609375
216.212,-1.6025390625
216.222,-1.5732421875
216.231,-1.5
216.241,-1.4013671875
216.251,-1.296875
216.261,-1.201171875
216.271,-1.1240234375
216.281,-1.0712890625
216.291,-1.044921875
216.301,-1.0400390625
216.311,-1.0498046875
216.321,-1.068359375
216.331,-1.08984375
216.341,-1.1123046875
216.351,-1.1279296875
216.361,-1.134765625
216.371,-1.1513671875
216.381,-1.1982421875
216.391,-1.2744140625
216.401,-1.3544921875
216.411,-1.40625
216.421,-1.40625
216.429,-1.3447265625
216.439,-1.23046875
216.449,-1.08984375
216.459,-0.9521484375
216.469,-0.8408203125
216.479,-0.775390625
216.489,-0.76123046875
216.499,-0.7919921875
216.509,-0.85107421875
216.519,-0.9150390625
216.529,-0.95947265625
216.539,-0.974609375
216.549,-0.966796875
216.559,-0.94873046875
216.569,-0.93359375
216.579,-0.92333984375
216.589,-0.916015625
216.599,-0.9091796875
216.609,-0.8984375
216.619,-0.880859375
216.623,-0.88671875
216.633,-0.9287109375
216.643,-0.9638671875
216.653,-0.9775390625
216.663,-0.9658203125
216.673,-0.935546875
216.683,-0.8994140625
216.693,-0.873046875
216.703,-0.86962890625
216.713,-0.890625
216.723,-0.92138671875
216.733,-0.9482421875
216.743,-0.96826171875
216.753,-0.98681640625
216.763,-1.005859375
216.773,-1.0244140625
216.782,-1.0361328125
216.792,-1.03125
216.802,-1.00390625
216.812,-0.958984375
216.822,-0.91064453125
216.832,-0.87353515625
216.842,-0.859375
216.852,-0.8701171875
216.862,-0.89697265625
216.872,-0.92578125
216.882,-0.94384765625
216.892,-0.94482421875
216.902,-0.9267578125
216.912,-0.8935546875
216.922,-0.853515625
216.932,-0.8193359375
216.942,-0.80126953125
216.952,-0.8056640625
216.962,-0.8349609375
216.972,-0.8876953125
216.981,-0.95361328125
216.991,-1.017578125
217.001,-1.0693359375
217.011,-1.0986328125
217.021,-1.095703125
217.031,-1.064453125
217.041,-1.015625
217.051,-0.96044921875
217.061,-0.91162109375
217.071,-0.87841796875
217.081,-0.86083984375
217.091,-0.853515625
217.101,-0.85009765625
217.111,-0.8486328125
217.121,-0.85498046875
217.131,-0.87548828125
217.141,-0.90283203125
217.151,-0.9267578125
217.161,-0.94140625
217.171,-0.94189453125
217.179,-0.9228515625
217.189,-0.89111328125
217.199,-0.85546875
217.209,-0.8212890625
217.219,-0.79541015625
217.229,-0.78076171875
217.239,-0.76904296875
217.249,-0.7509765625
217.259,-0.72998046875
217.269,-0.712890625
217.279,-0.69580078125
217.289,-0.67236328125
217.299,-0.65185546875
217.309,-0.64453125
217.319,-0.64404296875
217.329,-0.6435546875
217.339,-0.65234375
217.349,-0.67626953125
217.359,-0.69580078125
217.369,-0.68994140625
217.373,-0.70068359375
217.383,-0.728515625
217.393,-0.767578125
217.403,-0.8154296875
217.413,-0.86767578125
217.423,-0.92724609375
217.433,-0.99267578125
217.443,-1.048828125
217.453,-1.072265625
217.463,-1.0458984375
217.473,-0.978515625
217.483,-0.8984375
217.493,-0.83642578125
217.503,-0.8056640625
217.513,-0.79052734375
217.523,-0.7705078125
217.532,-0.736328125
217.542,-0.6943359375
217.552,-0.658203125
217.562,-0.64208984375
217.572,-0.66357421875
217.582,-0.73974609375
217.592,-0.8662109375
217.602,-1.0078125
217.612,-1.1123046875
217.622,-1.1337890625
217.632,-1.0478515625
217.642,-0.8623046875
217.652,-0.615234375
217.662,-0.36572265625
217.672,-0.1785888671875
217.682,-0.10504150390625
217.692,-0.1707763671875
217.702,-0.36279296875
217.712,-0.62646484375
217.722,-0.88037109375
217.731,-1.0439453125
217.741,-1.0595703125
217.751,-0.92236328125
217.761,-0.6767578125
217.771,-0.407470703125
217.781,-0.199951171875
217.791,-0.1192626953125
217.801,-0.1929931640625
217.811,-0.400634765625
217.821,-0.677734375
217.831,-0.94140625
217.841,-1.1142578125
217.851,-1.1474609375
217.861,-1.0263671875
217.871,-0.77392578125
217.881,-0.447021484375
217.891,-0.1260986328125
217.901,0.1116943359375
217.911,0.211669921875
217.921,0.15087890625
217.929,-0.05377197265625
217.939,-0.347412109375
217.949,-0.6513671875
217.959,-0.88232421875
217.969,-0.97607421875
217.979,-0.91015625
217.989,-0.69921875
217.999,-0.388671875
218.009,-0.038360595703125
218.019,0.2919921875
218.029,0.55859375
218.039,0.73876953125
218.049,0.8212890625
218.059,0.7998046875
218.069,0.677734375
218.079,0.468017578125
218.089,0.1817626953125
218.099,-0.1781005859375
218.109,-0.6015625
218.119,-1.0546875
218.123,-1.666015625
218.133,-1.271484375
218.143,-0.76513671875
218.153,-0.214599609375
218.163,0.30322265625
218.173,0.7080078125
218.183,0.92529296875
218.193,0.921875
218.203,0.72119140625
218.213,0.39013671875
218.223,0.008148193359375
218.233,-0.341552734375
218.243,-0.57958984375
218.253,-0.6455078125
218.263,-0.5224609375
218.273,-0.2469482421875
218.282,0.1044921875
218.292,0.442626953125
218.302,0.68798828125
218.312,0.78466796875
218.322,0.712890625
218.332,0.489013671875
218.342,0.145751953125
218.352,-0.27294921875
218.362,-0.69921875
218.372,-1.033203125
218.382,-1.1796875
218.392,-1.099609375
218.402,-0.8349609375
218.412,-0.486328125
218.422,-0.17041015625
218.432,0.0205535888671875
218.442,0.0313720703125
218.452,-0.1478271484375
218.462,-0.473876953125
218.472,-0.8671875
218.48,-1.251953125
218.49,-1.5625
218.5,-1.734375
218.51,-1.708984375
218.52,-1.4716796875
218.53,-1.05859375
218.54,-0.55224609375
218.55,-0.059295654296875
218.56,0.30908203125
218.57,0.46728515625
218.58,0.386474609375
218.59,0.1163330078125
218.6,-0.22802734375
218.61,-0.50244140625
218.62,-0.5888671875
218.63,-0.451416015625
218.64,-0.1473388671875
218.65,0.2044677734375
218.66,0.471923828125
218.67,0.55517578125
218.679,0.432861328125
218.689,0.1722412109375
218.699,-0.1090087890625
218.709,-0.300537109375
218.719,-0.342041015625
218.729,-0.2412109375
218.739,-0.06658935546875
218.749,0.09747314453125
218.759,0.2078857421875
218.769,0.27587890625
218.779,0.335693359375
218.789,0.404052734375
218.799,0.463134765625
218.809,0.46484375
218.819,0.358154296875
218.829,0.1307373046875
218.839,-0.165771484375
218.849,-0.439208984375
218.859,-0.61572265625
218.869,-0.6806640625
218.873,-0.09771728515625
218.883,0.055328369140625
218.893,0.118408203125
218.903,0.0753173828125
218.913,-0.044219970703125
218.923,-0.1781005859375
218.933,-0.26123046875
218.943,-0.26416015625
218.953,-0.2100830078125
218.963,-0.1463623046875
218.973,-0.09893798828125
218.983,-0.058807373046875
218.993,-0.00952911376953125
219.003,0.04736328125
219.013,0.09686279296875
219.023,0.1336669921875
219.032,0.1639404296875
219.042,0.1796875
219.052,0.1510009765625
219.062,0.061187744140625
219.072,-0.061859130859375
219.082,-0.1649169921875
219.092,-0.2174072265625
219.102,-0.23095703125
219.112,-0.232421875
219.122,-0.2265625
219.132,-0.196044921875
219.142,-0.13525390625
219.152,-0.06573486328125
219.162,-0.01611328125
219.172,0.00753021240234375
219.182,0.0228424072265625
219.192,0.04364013671875
219.202,0.057464599609375
219.212,0.0400390625
219.222,-0.00788116455078125
219.23,-0.0533447265625
219.24,-0.07012939453125
219.25,-0.070556640625
219.26,-0.08349609375
219.27,-0.11065673828125
219.28,-0.1253662109375
219.29,-0.1097412109375
219.3,-0.07537841796875
219.31,-0.04193115234375
219.32,-0.0116653442382812
219.33,0.0187225341796875
219.34,0.035430908203125
219.35,0.023284912109375
219.36,-0.00548171997070312
219.37,-0.02276611328125
219.38,-0.0213623046875
219.39,-0.0196533203125
219.4,-0.0282745361328125
219.41,-0.032562255859375
219.42,-0.015594482421875
219.429,0.0167083740234375
219.439,0.046478271484375
219.449,0.06878662109375
219.459,0.08709716796875
219.469,0.09295654296875
219.479,0.0755615234375
219.489,0.043182373046875
219.499,0.0151138305664062
219.509,-0.00208854675292969
219.519,-0.013153076171875
219.529,-0.014862060546875
219.539,0.00142192840576172
219.549,0.02972412109375
219.559,0.051239013671875
219.569,0.05621337890625
219.579,0.04730224609375
219.589,0.0274810791015625
219.599,0.00158309936523438
219.609,-0.0197601318359375
219.619,-0.0273284912109375
219.623,0.14697265625
219.633,0.15478515625
219.643,0.1478271484375
219.653,0.1248779296875
219.663,0.07574462890625
219.673,0.00408172607421875
219.683,-0.0689697265625
219.693,-0.12310791015625
219.703,-0.1461181640625
219.713,-0.1343994140625
219.723,-0.09295654296875
219.733,-0.024810791015625
219.743,0.06549072265625
219.753,0.1591796875
219.763,0.2330322265625
219.773,0.271728515625
219.782,0.269775390625
219.792,0.2349853515625
219.802,0.1795654296875
219.812,0.10986328125
219.822,0.031890869140625
219.832,-0.04010009765625
219.842,-0.09185791015625
219.852,-0.11663818359375
219.862,-0.115234375
219.872,-0.09234619140625
219.882,-0.049835205078125
219.892,0.00977325439453125
219.902,0.07415771484375
219.912,0.12200927734375
219.922,0.1365966796875
219.932,0.12164306640625
219.942,0.09478759765625
219.952,0.06976318359375
219.962,0.049835205078125
219.972,0.03326416015625
219.98,0.0190277099609375
219.99,0.00759506225585938
220,-0.00204086303710938
220.01,-0.0104217529296875
220.02,-0.01593017578125
220.03,-0.0147018432617188
220.04,-0.004119873046875
220.05,0.0107498168945312
220.06,0.02020263671875
220.07,0.017578125
220.08,0.003509521484375
220.09,-0.0142898559570312
220.1,-0.029876708984375
220.11,-0.04644775390625
220.12,-0.06939697265625
220.13,-0.09466552734375
220.14,-0.1112060546875
220.15,-0.1107177734375
220.16,-0.09332275390625
220.17,-0.070556640625
220.179,-0.05377197265625
220.189,-0.038238525390625
220.199,-0.01287841796875
220.209,0.019866943359375
220.219,0.045562744140625
220.229,0.05401611328125
220.239,0.04180908203125
220.249,0.0077362060546875
220.259,-0.043792724609375
220.269,-0.10406494140625
220.279,-0.16455078125
220.289,-0.2132568359375
220.299,-0.2374267578125
220.309,-0.2298583984375
220.319,-0.1878662109375
220.329,-0.113525390625
220.339,-0.0191802978515625
220.349,0.0704345703125
220.359,0.126220703125
220.369,0.1292724609375
220.373,-0.33642578125
220.383,-0.38330078125
220.393,-0.386962890625
220.403,-0.3603515625
220.413,-0.326904296875
220.423,-0.308837890625
220.433,-0.31787109375
220.443,-0.3525390625
220.453,-0.409912109375
220.463,-0.48779296875
220.473,-0.5810546875
220.483,-0.6962890625
220.493,-0.83740234375
220.503,-0.9755859375
220.513,-1.0693359375
220.523,-1.1181640625
220.532,-1.1572265625
220.542,-1.2060546875
220.552,-1.23828125
220.562,-1.2353515625
220.572,-1.208984375
220.582,-1.1806640625
220.592,-1.1611328125
220.602,-1.1611328125
220.612,-1.1796875
220.622,-1.185546875
220.632,-1.15625
220.642,-1.09765625
220.652,-1.0205078125
220.662,-0.92236328125
220.672,-0.81884765625
220.682,-0.73486328125
220.692,-0.67431640625
220.702,-0.62939453125
220.712,-0.61181640625
220.722,-0.6376953125
220.73,-0.68896484375
220.74,-0.72607421875
220.75,-0.736328125
220.76,-0.7431640625
220.77,-0.75732421875
220.78,-0.76220703125
220.79,-0.75390625
220.8,-0.7529296875
220.81,-0.7646484375
220.82,-0.7607421875
220.83,-0.7236328125
220.84,-0.67724609375
220.85,-0.65478515625
220.86,-0.65234375
220.87,-0.64892578125
220.88,-0.64990234375
220.89,-0.6787109375
220.9,-0.7314453125
220.91,-0.76318359375
220.92,-0.744140625
220.929,-0.697265625
220.939,-0.67138671875
220.949,-0.6826171875
220.959,-0.701171875
220.969,-0.69287109375
220.979,-0.66357421875
220.989,-0.654296875
220.999,-0.68359375
221.009,-0.71728515625
221.019,-0.6943359375
221.029,-0.60009765625
221.039,-0.4912109375
221.049,-0.442626953125
221.059,-0.473876953125
221.069,-0.5302734375
221.079,-0.53759765625
221.089,-0.4775390625
221.099,-0.4072265625
221.109,-0.416748046875
221.119,-0.55517578125
221.123,-1.1220703125
221.133,-0.93603515625
221.143,-0.76708984375
221.153,-0.685546875
221.163,-0.71337890625
221.173,-0.818359375
221.183,-0.9306640625
221.193,-0.97119140625
221.203,-0.884765625
221.213,-0.673828125
221.223,-0.400390625
221.233,-0.1551513671875
221.243,-0.0230560302734375
221.253,-0.05364990234375
221.263,-0.244384765625
221.273,-0.54345703125
221.282,-0.8662109375
221.292,-1.1201171875
221.302,-1.2294921875
221.312,-1.1689453125
221.322,-0.96630859375
221.332,-0.69482421875
221.342,-0.447509765625
221.352,-0.30419921875
221.362,-0.3037109375
221.372,-0.426025390625
221.382,-0.60009765625
221.392,-0.73876953125
221.402,-0.7705078125
221.412,-0.65771484375
221.422,-0.40185546875
221.432,-0.041748046875
221.442,0.3603515625
221.452,0.7412109375
221.462,1.05078125
221.472,1.251953125
221.48,1.310546875
221.49,1.21875
221.5,1.00390625
221.51,0.73681640625
221.52,0.49560546875
221.53,0.33154296875
221.54,0.244140625
221.55,0.1834716796875
221.56,0.076171875
221.57,-0.1290283203125
221.58,-0.4208984375
221.59,-0.7216796875
221.6,-0.92626953125
221.61,-0.95458984375
221.62,-0.787109375
221.63,-0.474365234375
221.64,-0.12164306640625
221.65,0.1636962890625
221.66,0.325927734375
221.67,0.371826171875
221.679,0.35693359375
221.689,0.351318359375
221.699,0.38525390625
221.709,0.4228515625
221.719,0.40478515625
221.729,0.294189453125
221.739,0.09857177734375
221.749,-0.126708984375
221.759,-0.30078125
221.769,-0.36474609375
221.779,-0.312255859375
221.789,-0.1884765625
221.799,-0.06109619140625
221.809,0.0179443359375
221.819,0.03619384765625
221.829,0.017059326171875
221.839,-0.00391769409179688
221.849,-0.00761032104492188
221.859,-0.00666427612304688
221.869,-0.0283966064453125
221.873,-0.1759033203125
221.883,-0.11297607421875
221.893,-0.034454345703125
221.903,0.044830322265625
221.913,0.11181640625
221.923,0.1561279296875
221.933,0.1719970703125
221.943,0.155517578125
221.953,0.10894775390625
221.963,0.042633056640625
221.973,-0.033233642578125
221.983,-0.113037109375
221.993,-0.185791015625
222.003,-0.2315673828125
222.013,-0.2347412109375
222.023,-0.1982421875
222.032,-0.142333984375
222.042,-0.0859375
222.052,-0.030426025390625
222.062,0.03289794921875
222.072,0.09857177734375
222.082,0.139892578125
222.092,0.1341552734375
222.102,0.0869140625
222.112,0.0218353271484375
222.122,-0.0438232421875
222.132,-0.1068115234375
222.142,-0.1722412109375
222.152,-0.2493896484375
222.162,-0.335693359375
222.172,-0.39892578125
222.182,-0.3984375
222.192,-0.321533203125
222.202,-0.1883544921875
222.212,-0.029052734375
222.222,0.127197265625
222.23,0.25
222.24,0.307861328125
222.25,0.28125
222.26,0.1785888671875
222.27,0.033477783203125
222.28,-0.10980224609375
222.29,-0.20947265625
222.3,-0.24169921875
222.31,-0.20361328125
222.32,-0.10479736328125
222.33,0.0335693359375
222.34,0.1788330078125
222.35,0.294189453125
222.36,0.35205078125
222.37,0.341064453125
222.38,0.266357421875
222.39,0.1492919921875
222.4,0.0182647705078125
222.41,-0.1044921875
222.42,-0.1951904296875
222.429,-0.231201171875
222.439,-0.2137451171875
222.449,-0.1630859375
222.459,-0.09912109375
222.469,-0.041290283203125
222.479,-0.00461959838867188
222.489,0.0110702514648438
222.499,0.0092315673828125
222.509,-0.0116500854492188
222.519,-0.043609619140625
222.529,-0.07110595703125
222.539,-0.08795166015625
222.549,-0.093994140625
222.559,-0.08892822265625
222.569,-0.0728759765625
222.579,-0.0455322265625
222.589,-0.0101318359375
222.599,0.0268707275390625
222.609,0.058624267578125
222.619,0.07415771484375
222.623,-0.131591796875
222.633,-0.1707763671875
222.643,-0.1805419921875
222.653,-0.160888671875
222.663,-0.11529541015625
222.673,-0.054962158203125
222.683,0.00340080261230469
222.693,0.052490234375
222.703,0.09368896484375
222.713,0.1268310546875
222.723,0.1551513671875
222.733,0.1915283203125
222.743,0.2327880859375
222.753,0.2379150390625
222.763,0.1671142578125
222.773,0.04669189453125
222.781,-0.021331787109375
222.791,0.05877685546875
222.801,0.258056640625
222.811,0.423583984375
222.821,0.43212890625
222.831,0.322509765625
222.841,0.24169921875
222.851,0.27099609375
222.861,0.35009765625
222.871,0.384765625
222.881,0.3828125
222.891,0.417724609375
222.901,0.478759765625
222.911,0.439453125
222.921,0.2109375
222.931,-0.1251220703125
222.941,-0.353759765625
222.951,-0.30859375
222.961,-0.0254364013671875
222.971,0.299072265625
222.98,0.488525390625
222.99,0.525390625
223,0.5380859375
223.01,0.6396484375
223.02,0.78662109375
223.03,0.8134765625
223.04,0.587890625
223.05,0.13671875
223.06,-0.351318359375
223.07,-0.64404296875
223.08,-0.62353515625
223.09,-0.365966796875
223.1,-0.07305908203125
223.11,0.07666015625
223.12,0.0287017822265625
223.13,-0.1358642578125
223.14,-0.26611328125
223.15,-0.2578125
223.16,-0.126708984375
223.17,0.020233154296875
223.179,0.0760498046875
223.189,0.00700759887695312
223.199,-0.1295166015625
223.209,-0.2408447265625
223.219,-0.272216796875
223.229,-0.2139892578125
223.239,-0.06671142578125
223.249,0.14404296875
223.259,0.3427734375
223.269,0.43603515625
223.279,0.364501953125
223.289,0.1356201171875
223.299,-0.181396484375
223.309,-0.4892578125
223.319,-0.69970703125
223.329,-0.7578125
223.339,-0.6416015625
223.349,-0.36962890625
223.359,-0.0115966796875
223.369,0.323486328125
223.373,-0.32958984375
223.383,-0.6103515625
223.393,-0.740234375
223.403,-0.66943359375
223.413,-0.403564453125
223.423,-0.0118789672851562
223.433,0.40771484375
223.443,0.767578125
223.453,1.009765625
223.463,1.1064453125
223.473,1.04296875
223.483,0.80859375
223.493,0.4140625
223.503,-0.09100341796875
223.513,-0.63525390625
223.523,-1.158203125
223.531,-1.6083984375
223.541,-1.9443359375
223.551,-2.138671875
223.561,-2.17578125
223.571,-2.03515625
223.581,-1.7080078125
223.591,-1.2392578125
223.601,-0.73095703125
223.611,-0.3017578125
223.621,-5.9664249420166e-05
223.631,0.22265625
223.641,0.478759765625
223.651,0.88232421875
223.661,1.484375
223.671,2.24609375
223.681,3.056640625
223.691,3.779296875
223.701,4.29296875
223.711,4.53125
223.721,4.46875
223.73,4.13671875
223.74,3.6171875
223.75,2.998046875
223.76,2.341796875
223.77,1.6826171875
223.78,1.046875
223.79,0.49755859375
223.8,0.09918212890625
223.81,-0.10992431640625
223.82,-0.1322021484375
223.83,-0.0149993896484375
223.84,0.162353515625
223.85,0.327880859375
223.86,0.441162109375
223.87,0.483642578125
223.88,0.45166015625
223.89,0.354736328125
223.9,0.2086181640625
223.91,0.03900146484375
223.92,-0.1173095703125
223.929,-0.2310791015625
223.939,-0.290771484375
223.949,-0.292724609375
223.959,-0.2403564453125
223.969,-0.1536865234375
223.979,-0.06201171875
223.989,0.00951385498046875
223.999,0.04791259765625
224.009,0.052459716796875
224.019,0.027008056640625
224.029,-0.0196685791015625
224.039,-0.069091796875
224.049,-0.10211181640625
224.059,-0.1085205078125
224.069,-0.08575439453125
224.079,-0.04150390625
224.089,0.00908660888671875
224.099,0.05230712890625
224.109,0.07666015625
224.119,0.07403564453125
224.124,-0.25537109375
224.134,-0.283447265625
224.144,-0.27734375
224.154,-0.2474365234375
224.164,-0.2069091796875
224.174,-0.16357421875
224.184,-0.11895751953125
224.194,-0.07879638671875
224.204,-0.04986572265625
224.214,-0.0299072265625
224.224,-0.0159912109375
224.234,-0.0128021240234375
224.244,-0.026031494140625
224.254,-0.0523681640625
224.264,-0.075927734375
224.274,-0.07745361328125
224.281,-0.054168701171875
224.291,-0.0213470458984375
224.301,0.00724029541015625
224.311,0.0285797119140625
224.321,0.044158935546875
224.331,0.055816650390625
224.341,0.063232421875
224.351,0.0631103515625
224.361,0.058074951171875
224.371,0.06060791015625
224.381,0.0784912109375
224.391,0.1043701171875
224.401,0.126708984375
224.411,0.1397705078125
224.421,0.1417236328125
224.431,0.132080078125
224.441,0.10723876953125
224.451,0.056732177734375
224.461,-0.0261383056640625
224.471,-0.130615234375
224.48,-0.228515625
224.49,-0.289794921875
224.5,-0.299072265625
224.51,-0.2578125
224.52,-0.175537109375
224.53,-0.06927490234375
224.54,0.027099609375
224.55,0.08038330078125
224.56,0.07989501953125
224.57,0.033203125
224.58,-0.045562744140625
224.59,-0.13330078125
224.6,-0.1993408203125
224.61,-0.2281494140625
224.62,-0.232666015625
224.63,-0.233154296875
224.64,-0.233154296875
224.65,-0.2264404296875
224.66,-0.2088623046875
224.67,-0.1771240234375
224.679,-0.1275634765625
224.689,-0.06475830078125
224.699,-0.0137939453125
224.709,-0.009765625
224.719,-0.06634521484375
224.729,-0.170654296875
224.739,-0.30029296875
224.749,-0.42822265625
224.759,-0.52099609375
224.769,-0.55322265625
224.779,-0.5166015625
224.789,-0.426513671875
224.799,-0.31005859375
224.809,-0.199462890625
224.819,-0.11956787109375
224.829,-0.07598876953125
224.839,-0.050872802734375
224.849,-0.0250091552734375
224.859,-0.00365066528320312
224.869,-0.000430107116699219
224.874,-0.1041259765625
224.884,-0.10357666015625
224.894,-0.113037109375
224.904,-0.151123046875
224.914,-0.2308349609375
224.924,-0.35107421875
224.934,-0.49560546875
224.944,-0.638671875
224.954,-0.75048828125
224.964,-0.791015625
224.974,-0.72509765625
224.984,-0.5517578125
224.994,-0.322509765625
225.004,-0.10382080078125
225.014,0.0628662109375
225.024,0.1666259765625
225.031,0.2100830078125
225.041,0.2073974609375
225.051,0.1793212890625
225.061,0.1373291015625
225.071,0.07940673828125
225.081,0.00497055053710938
225.091,-0.06439208984375
225.101,-0.08782958984375
225.111,-0.040130615234375
225.121,0.05267333984375
225.131,0.12384033203125
225.141,0.11468505859375
225.151,0.00858306884765625
225.161,-0.1680908203125
225.171,-0.36328125
225.181,-0.5263671875
225.191,-0.62646484375
225.201,-0.6533203125
225.211,-0.62158203125
225.221,-0.5556640625
225.23,-0.466064453125
225.24,-0.3583984375
225.25,-0.2529296875
225.26,-0.1702880859375
225.27,-0.109619140625
225.28,-0.061431884765625
225.29,-0.02728271484375
225.3,-0.01556396484375
225.31,-0.0262451171875
225.32,-0.0513916015625
225.33,-0.09356689453125
225.34,-0.1671142578125
225.35,-0.27685546875
225.36,-0.40576171875
225.37,-0.52001953125
225.38,-0.58642578125
225.39,-0.58642578125
225.4,-0.52783203125
225.41,-0.441162109375
225.42,-0.353271484375
225.429,-0.2646484375
225.439,-0.1593017578125
225.449,-0.04168701171875
225.459,0.061126708984375
225.469,0.127197265625
225.479,0.1583251953125
225.489,0.1680908203125
225.499,0.1658935546875
225.509,0.16259765625
225.519,0.169921875
225.529,0.181640625
225.539,0.17138671875
225.549,0.11761474609375
225.559,0.0207061767578125
225.569,-0.1053466796875
225.579,-0.24755859375
225.589,-0.393798828125
225.599,-0.5126953125
225.609,-0.548828125
225.619,-0.465087890625
225.623,0.264892578125
225.633,0.2313232421875
225.643,0.1383056640625
225.653,0.0225372314453125
225.663,-0.0772705078125
225.673,-0.142578125
225.683,-0.1842041015625
225.693,-0.2139892578125
225.703,-0.2275390625
225.713,-0.2269287109375
225.723,-0.2294921875
225.733,-0.245849609375
225.743,-0.26708984375
225.753,-0.276123046875
225.763,-0.266357421875
225.773,-0.251708984375
225.781,-0.25146484375
225.791,-0.262939453125
225.801,-0.267578125
225.811,-0.2578125
225.821,-0.24560546875
225.831,-0.256591796875
225.841,-0.318603515625
225.851,-0.4345703125
225.861,-0.5810546875
225.871,-0.73583984375
225.881,-0.87841796875
225.891,-0.99072265625
225.901,-1.0908203125
225.911,-1.212890625
225.921,-1.3310546875
225.931,-1.375
225.941,-1.3271484375
225.951,-1.251953125
225.961,-1.2109375
225.971,-1.197265625
225.98,-1.16015625
225.99,-1.087890625
226,-1.0302734375
226.01,-1.046875
226.02,-1.1240234375
226.03,-1.1923828125
226.04,-1.2099609375
226.05,-1.1943359375
226.06,-1.171875
226.07,-1.1650390625
226.08,-1.193359375
226.09,-1.244140625
226.1,-1.267578125
226.11,-1.228515625
226.12,-1.1455078125
226.13,-1.0546875
226.14,-0.9814453125
226.15,-0.93408203125
226.16,-0.91162109375
226.17,-0.9140625
226.179,-0.95068359375
226.189,-1.02734375
226.199,-1.1279296875
226.209,-1.21875
226.219,-1.2685546875
226.229,-1.267578125
226.239,-1.2158203125
226.249,-1.125
226.259,-1.013671875
226.269,-0.8994140625
226.279,-0.79833984375
226.289,-0.724609375
226.299,-0.69482421875
226.309,-0.7197265625
226.319,-0.7900390625
226.329,-0.8837890625
226.339,-0.974609375
226.349,-1.0361328125
226.359,-1.05859375
226.369,-1.046875
226.373,-0.88330078125
226.383,-0.9052734375
226.393,-0.953125
226.403,-1.015625
226.413,-1.0703125
226.423,-1.0986328125
226.433,-1.09375
226.443,-1.0615234375
226.453,-1.0146484375
226.463,-0.96240234375
226.473,-0.916015625
226.483,-0.88427734375
226.493,-0.873046875
226.503,-0.8818359375
226.513,-0.9013671875
226.523,-0.919921875
226.531,-0.9296875
226.541,-0.921875
226.551,-0.896484375
226.561,-0.86865234375
226.571,-0.8505859375
226.581,-0.845703125
226.591,-0.85302734375
226.601,-0.869140625
226.611,-0.89404296875
226.621,-0.9296875
226.631,-0.96923828125
226.641,-1.0048828125
226.651,-1.0341796875
226.661,-1.05078125
226.671,-1.0498046875
226.681,-1.0283203125
226.691,-0.99169921875
226.701,-0.94580078125
226.711,-0.9033203125
226.721,-0.87890625
226.73,-0.87548828125
226.74,-0.8837890625
226.75,-0.89501953125
226.76,-0.90869140625
226.77,-0.92041015625
226.78,-0.921875
226.79,-0.90966796875
226.8,-0.88818359375
226.81,-0.86376953125
226.82,-0.8408203125
226.83,-0.82568359375
226.84,-0.8291015625
226.85,-0.85302734375
226.86,-0.88427734375
226.87,-0.90283203125
226.88,-0.90185546875
226.89,-0.8955078125
226.9,-0.89990234375
226.91,-0.912109375
226.92,-0.91357421875
226.929,-0.89013671875
226.939,-0.85693359375
226.949,-0.8388671875
226.959,-0.84130859375
226.969,-0.8447265625
226.979,-0.8271484375
226.989,-0.791015625
226.999,-0.759765625
227.009,-0.74560546875
227.019,-0.728515625
227.029,-0.6787109375
227.039,-0.59375
227.049,-0.50341796875
227.059,-0.44873046875
227.069,-0.450439453125
227.079,-0.5
227.089,-0.568359375
227.099,-0.62646484375
227.109,-0.666015625
227.119,-0.697265625
227.122,-0.84033203125
227.132,-0.7705078125
227.142,-0.6630859375
227.152,-0.560546875
227.162,-0.50732421875
227.172,-0.52490234375
227.182,-0.58837890625
227.192,-0.64404296875
227.202,-0.6494140625
227.212,-0.599609375
227.222,-0.5263671875
227.232,-0.479248046875
227.242,-0.489013671875
227.252,-0.54150390625
227.262,-0.59375
227.272,-0.60791015625
227.281,-0.57470703125
227.291,-0.50244140625
227.301,-0.4091796875
227.311,-0.31591796875
227.321,-0.2509765625
227.331,-0.242431640625
227.341,-0.307861328125
227.351,-0.441162109375
227.361,-0.60400390625
227.371,-0.736328125
227.381,-0.78271484375
227.391,-0.712890625
227.401,-0.53466796875
227.411,-0.2822265625
227.421,-0.0119705200195312
227.431,0.2049560546875
227.441,0.311279296875
227.451,0.3037109375
227.461,0.2303466796875
227.471,0.1500244140625
227.48,0.1051025390625
227.49,0.110595703125
227.5,0.151611328125
227.51,0.1944580078125
227.52,0.2054443359375
227.53,0.1712646484375
227.54,0.10858154296875
227.55,0.048370361328125
227.56,0.00677871704101562
227.57,-0.0301666259765625
227.58,-0.09466552734375
227.59,-0.207763671875
227.6,-0.3564453125
227.61,-0.49365234375
227.62,-0.55224609375
227.63,-0.482666015625
227.64,-0.300048828125
227.65,-0.0963134765625
227.66,0.0174713134765625
227.67,-0.009521484375
227.674,-0.2149658203125
227.684,-0.1722412109375
227.694,-0.1517333984375
227.704,-0.1202392578125
227.714,-0.052337646484375
227.724,0.037689208984375
227.734,0.10260009765625
227.744,0.099365234375
227.754,0.0289764404296875
227.764,-0.0604248046875
227.774,-0.11151123046875
227.784,-0.09942626953125
227.794,-0.038543701171875
227.804,0.04443359375
227.814,0.130615234375
227.824,0.201904296875
227.832,0.2353515625
227.842,0.2203369140625
227.852,0.17578125
227.862,0.138916015625
227.872,0.130615234375
227.882,0.1326904296875
227.892,0.10638427734375
227.902,0.0330810546875
227.912,-0.06817626953125
227.922,-0.162353515625
227.932,-0.22900390625
227.942,-0.265869140625
227.952,-0.270751953125
227.962,-0.2410888671875
227.972,-0.18896484375
227.982,-0.128173828125
227.992,-0.052154541015625
228.002,0.047698974609375
228.012,0.150146484375
228.022,0.211669921875
228.031,0.2049560546875
228.041,0.13916015625
228.051,0.046173095703125
228.061,-0.047119140625
228.071,-0.1302490234375
228.081,-0.201416015625
228.091,-0.25537109375
228.101,-0.28173828125
228.111,-0.272705078125
228.121,-0.230224609375
228.131,-0.1673583984375
228.141,-0.10479736328125
228.151,-0.058685302734375
228.161,-0.029083251953125
228.171,-0.00625991821289062
228.181,0.0109100341796875
228.191,0.0110015869140625
228.201,-0.0107650756835938
228.211,-0.0367431640625
228.221,-0.0399169921875
228.23,-0.0127944946289062
228.24,0.02490234375
228.25,0.050079345703125
228.26,0.05694580078125
228.27,0.050079345703125
228.28,0.0292510986328125
228.29,-0.00783538818359375
228.3,-0.0560302734375
228.31,-0.10430908203125
228.32,-0.1427001953125
228.33,-0.1639404296875
228.34,-0.1646728515625
228.35,-0.1502685546875
228.36,-0.1326904296875
228.37,-0.11590576171875
228.38,-0.09600830078125
228.39,-0.0743408203125
228.4,-0.06085205078125
228.41,-0.05999755859375
228.42,-0.0650634765625
228.424,-0.144287109375
228.434,-0.1859130859375
228.444,-0.226806640625
228.454,-0.25146484375
228.464,-0.25341796875
228.474,-0.2391357421875
228.484,-0.2125244140625
228.494,-0.16455078125
228.504,-0.09033203125
228.514,-0.0156097412109375
228.524,0.0126724243164062
228.534,-0.02532958984375
228.544,-0.0968017578125
228.554,-0.1536865234375
228.564,-0.188232421875
228.574,-0.226318359375
228.582,-0.27099609375
228.592,-0.29052734375
228.602,-0.263916015625
228.612,-0.1981201171875
228.622,-0.1019287109375
228.632,0.017333984375
228.642,0.1337890625
228.652,0.2103271484375
228.662,0.230224609375
228.672,0.2027587890625
228.682,0.13916015625
228.692,0.046966552734375
228.702,-0.05322265625
228.712,-0.129638671875
228.722,-0.167236328125
228.732,-0.172119140625
228.742,-0.149658203125
228.752,-0.10101318359375
228.762,-0.036956787109375
228.772,0.0249176025390625
228.781,0.07470703125
228.791,0.1075439453125
228.801,0.117431640625
228.811,0.1077880859375
228.821,0.091064453125
228.831,0.07415771484375
228.841,0.057861328125
228.851,0.044189453125
228.861,0.032562255859375
228.871,0.0190277099609375
228.881,0.00629043579101562
228.891,8.07642936706543e-05
228.901,-0.000840663909912109
228.911,0.00102424621582031
228.921,0.00418472290039062
228.931,0.00292205810546875
228.941,-0.00580215454101562
228.951,-0.0183258056640625
228.961,-0.03216552734375
228.971,-0.046875
228.98,-0.059112548828125
228.99,-0.061767578125
229,-0.048004150390625
229.01,-0.0182037353515625
229.02,0.0222930908203125
229.03,0.07049560546875
229.04,0.12335205078125
229.05,0.171630859375
229.06,0.1995849609375
229.07,0.1920166015625
229.08,0.147216796875
229.09,0.0784912109375
229.1,0.00236320495605469
229.11,-0.0657958984375
229.12,-0.113037109375
229.13,-0.1307373046875
229.14,-0.115478515625
229.15,-0.07257080078125
229.16,-0.015899658203125
229.17,0.041015625
229.175,0.18994140625
229.185,0.17529296875
229.195,0.149169921875
229.205,0.11456298828125
229.215,0.07354736328125
229.225,0.033233642578125
229.235,0.00273323059082031
229.245,-0.0148162841796875
229.255,-0.0207366943359375
229.265,-0.0150909423828125
229.275,0.00291633605957031
229.285,0.0310821533203125
229.295,0.0611572265625
229.305,0.080078125
229.315,0.0797119140625
229.325,0.06298828125
229.332,0.03668212890625
229.342,0.0038604736328125
229.352,-0.031829833984375
229.362,-0.061187744140625
229.372,-0.0738525390625
229.382,-0.063232421875
229.392,-0.0283050537109375
229.402,0.0211944580078125
229.412,0.064208984375
229.422,0.0784912109375
229.432,0.05572509765625
229.442,0.00839996337890625
229.452,-0.03924560546875
229.462,-0.068115234375
229.472,-0.0740966796875
229.482,-0.06396484375
229.492,-0.046173095703125
229.502,-0.02685546875
229.512,-0.0109329223632812
229.522,-0.000508308410644531
229.531,0.00667572021484375
229.541,0.0135040283203125
229.551,0.0199127197265625
229.561,0.0252685546875
229.571,0.0284881591796875
229.581,0.0250091552734375
229.591,0.0090179443359375
229.601,-0.0192413330078125
229.611,-0.048553466796875
229.621,-0.06536865234375
229.631,-0.06756591796875
229.641,-0.059417724609375
229.651,-0.039947509765625
229.661,-0.009307861328125
229.671,0.020050048828125
229.681,0.0308380126953125
229.691,0.0179290771484375
229.701,-0.0120925903320312
229.711,-0.0545654296875
229.721,-0.105224609375
229.73,-0.1512451171875
229.74,-0.1795654296875
229.75,-0.1885986328125
229.76,-0.18115234375
229.77,-0.1556396484375
229.78,-0.10888671875
229.79,-0.0469970703125
229.8,0.0115966796875
229.81,0.050079345703125
229.82,0.061798095703125
229.83,0.046478271484375
229.84,0.009613037109375
229.85,-0.033905029296875
229.86,-0.0660400390625
229.87,-0.076904296875
229.88,-0.0673828125
229.89,-0.043853759765625
229.9,-0.0124740600585938
229.91,0.022430419921875
229.92,0.055938720703125
229.924,0.03564453125
229.934,0.0142288208007812
229.944,0.0062713623046875
229.954,0.0153656005859375
229.964,0.036590576171875
229.974,0.057037353515625
229.984,0.065185546875
229.994,0.0615234375
230.004,0.05401611328125
230.014,0.04150390625
230.024,0.0133285522460938
230.034,-0.0364990234375
230.044,-0.10064697265625
230.054,-0.1636962890625
230.064,-0.2176513671875
230.074,-0.262939453125
230.082,-0.29931640625
230.092,-0.323486328125
230.102,-0.3232421875
230.112,-0.28076171875
230.122,-0.192138671875
230.132,-0.079345703125
230.142,0.02313232421875
230.152,0.09478759765625
230.162,0.134765625
230.172,0.1488037109375
230.182,0.142333984375
230.192,0.11883544921875
230.202,0.07830810546875
230.212,0.026153564453125
230.222,-0.0272064208984375
230.232,-0.0750732421875
230.242,-0.116455078125
230.252,-0.1500244140625
230.262,-0.1702880859375
230.272,-0.172119140625
230.281,-0.1552734375
230.291,-0.12152099609375
230.301,-0.07928466796875
230.311,-0.0433349609375
230.321,-0.0159149169921875
230.331,0.0125274658203125
230.341,0.039459228515625
230.351,0.0496826171875
230.361,0.034942626953125
230.371,-0.004302978515625
230.381,-0.062042236328125
230.391,-0.12042236328125
230.401,-0.161865234375
230.411,-0.185546875
230.421,-0.19580078125
230.431,-0.190673828125
230.441,-0.1734619140625
230.451,-0.1524658203125
230.461,-0.1280517578125
230.471,-0.09881591796875
230.48,-0.07293701171875
230.49,-0.056304931640625
230.5,-0.04400634765625
230.51,-0.0357666015625
230.52,-0.037353515625
230.53,-0.04254150390625
230.54,-0.039154052734375
230.55,-0.03057861328125
230.56,-0.0297698974609375
230.57,-0.038421630859375
230.58,-0.05133056640625
230.59,-0.0703125
230.6,-0.09368896484375
230.61,-0.10528564453125
230.62,-0.09429931640625
230.63,-0.074462890625
230.64,-0.069091796875
230.65,-0.08319091796875
230.66,-0.1046142578125
230.67,-0.1287841796875
230.674,-0.1878662109375
230.684,-0.1322021484375
230.694,-0.058624267578125
230.704,0.0452880859375
230.714,0.1634521484375
230.724,0.2548828125
230.734,0.290771484375
230.744,0.2705078125
230.754,0.212890625
230.764,0.1365966796875
230.774,0.04681396484375
230.784,-0.060943603515625
230.794,-0.1826171875
230.804,-0.2998046875
230.814,-0.3896484375
230.824,-0.438232421875
230.832,-0.451904296875
230.842,-0.45751953125
230.852,-0.48095703125
230.862,-0.51171875
230.872,-0.50390625
230.882,-0.425537109375
230.892,-0.287353515625
230.902,-0.13037109375
230.912,0.0113372802734375
230.922,0.1324462890625
230.932,0.23828125
230.942,0.310791015625
230.952,0.30908203125
230.962,0.2037353515625
230.972,0.0067596435546875
230.982,-0.229248046875
230.992,-0.431884765625
231.002,-0.53955078125
231.012,-0.52978515625
231.022,-0.418701171875
231.031,-0.254150390625
231.041,-0.10235595703125
231.051,-0.01385498046875
231.061,0.00261116027832031
231.071,-0.024200439453125
231.081,-0.056304931640625
231.091,-0.07232666015625
231.101,-0.07147216796875
231.111,-0.06396484375
231.121,-0.060791015625
231.131,-0.06884765625
231.141,-0.08978271484375
231.151,-0.12066650390625
231.161,-0.1605224609375
231.171,-0.2119140625
231.181,-0.274169921875
231.191,-0.343017578125
231.201,-0.41064453125
231.211,-0.465087890625
231.221,-0.494873046875
231.23,-0.490966796875
231.24,-0.44677734375
231.25,-0.36181640625
231.26,-0.24951171875
231.27,-0.1357421875
231.28,-0.044830322265625
231.29,0.00553131103515625
231.3,0.00362205505371094
231.31,-0.05242919921875
231.32,-0.1512451171875
231.33,-0.2685546875
231.34,-0.375244140625
231.35,-0.450439453125
231.36,-0.486328125
231.37,-0.482666015625
231.38,-0.44775390625
231.39,-0.398193359375
231.4,-0.349853515625
231.41,-0.306640625
231.42,-0.266357421875
231.423,-0.0364990234375
231.433,0.0141754150390625
231.443,0.052001953125
231.453,0.07537841796875
231.463,0.08843994140625
231.473,0.09417724609375
231.483,0.086669921875
231.493,0.05419921875
231.503,-0.01092529296875
231.513,-0.10595703125
231.523,-0.2197265625
231.533,-0.33740234375
231.543,-0.44091796875
231.553,-0.5068359375
231.563,-0.51611328125
231.573,-0.464111328125
231.582,-0.364990234375
231.592,-0.2393798828125
231.602,-0.10467529296875
231.612,0.022216796875
231.622,0.12213134765625
231.632,0.177978515625
231.642,0.1787109375
231.652,0.11883544921875
231.662,0.00142478942871094
231.672,-0.1578369140625
231.682,-0.33251953125
231.692,-0.49462890625
231.702,-0.6279296875
231.712,-0.73388671875
231.722,-0.81884765625
231.732,-0.8837890625
231.742,-0.92431640625
231.752,-0.93212890625
231.762,-0.892578125
231.772,-0.79345703125
231.781,-0.6337890625
231.791,-0.429443359375
231.801,-0.2059326171875
231.811,-0.00242042541503906
231.821,0.1396484375
231.831,0.1956787109375
231.841,0.16943359375
231.851,0.07855224609375
231.861,-0.06329345703125
231.871,-0.239501953125
231.881,-0.418701171875
231.891,-0.56201171875
231.901,-0.6337890625
231.911,-0.6123046875
231.921,-0.5078125
231.931,-0.39404296875
231.941,-0.3837890625
231.951,-0.513671875
231.961,-0.7099609375
231.971,-0.89208984375
231.979,-1.0166015625
231.989,-1.041015625
231.999,-0.931640625
232.009,-0.67919921875
232.019,-0.288818359375
232.029,0.1900634765625
232.039,0.6318359375
232.049,0.8994140625
232.059,0.9091796875
232.069,0.62548828125
232.079,0.0770263671875
232.089,-0.60888671875
232.099,-1.2216796875
232.109,-1.5732421875
232.119,-1.6259765625
232.129,-1.513671875
232.139,-1.365234375
232.149,-1.1728515625
232.159,-0.8466796875
232.169,-0.305908203125
232.174,2.189453125
232.184,1.92578125
232.194,1.48828125
232.204,0.9716796875
232.214,0.437744140625
232.224,-0.04754638671875
232.234,-0.374267578125
232.244,-0.444091796875
232.254,-0.24560546875
232.264,0.1328125
232.274,0.52001953125
232.284,0.7353515625
232.294,0.703125
232.304,0.477783203125
232.314,0.18798828125
232.324,-0.034576416015625
232.332,-0.1182861328125
232.342,-0.101318359375
232.352,-0.09661865234375
232.362,-0.1943359375
232.372,-0.399169921875
232.382,-0.63525390625
232.392,-0.80419921875
232.402,-0.84814453125
232.412,-0.75830078125
232.422,-0.541015625
232.432,-0.2039794921875
232.442,0.2132568359375
232.452,0.59912109375
232.462,0.80126953125
232.472,0.720703125
232.482,0.38916015625
232.492,-0.046051025390625
232.502,-0.412109375
232.512,-0.5927734375
232.522,-0.55810546875
232.532,-0.36279296875
232.542,-0.100341796875
232.552,0.1590576171875
232.562,0.3896484375
232.572,0.58740234375
232.582,0.73583984375
232.592,0.7900390625
232.602,0.7001953125
232.612,0.457275390625
232.622,0.10931396484375
232.632,-0.27099609375
232.642,-0.6201171875
232.652,-0.89306640625
232.662,-1.0654296875
232.672,-1.1357421875
232.682,-1.1181640625
232.692,-1.03515625
232.702,-0.91162109375
232.712,-0.78564453125
232.722,-0.697265625
232.729,-0.6650390625
232.739,-0.68408203125
232.749,-0.7412109375
232.759,-0.82763671875
232.769,-0.93603515625
232.779,-1.0546875
232.789,-1.166015625
232.799,-1.25
232.809,-1.291015625
232.819,-1.275390625
232.829,-1.203125
232.839,-1.0947265625
232.849,-0.97802734375
232.859,-0.87548828125
232.869,-0.810546875
232.879,-0.80126953125
232.889,-0.84375
232.899,-0.9228515625
232.909,-1.0234375
232.919,-1.126953125
232.923,-0.92822265625
232.933,-0.8017578125
232.943,-0.71923828125
232.953,-0.7001953125
232.963,-0.7451171875
232.973,-0.83447265625
232.983,-0.9404296875
232.993,-1.03515625
233.003,-1.09375
233.013,-1.09765625
233.023,-1.0400390625
233.033,-0.93603515625
233.043,-0.8095703125
233.053,-0.689453125
233.063,-0.59912109375
233.073,-0.54833984375
233.082,-0.5361328125
233.092,-0.55517578125
233.102,-0.59912109375
233.112,-0.662109375
233.122,-0.732421875
233.132,-0.796875
233.142,-0.8447265625
233.152,-0.87109375
233.162,-0.87744140625
233.172,-0.86962890625
233.182,-0.84765625
233.192,-0.81201171875
233.202,-0.767578125
233.212,-0.72265625
233.222,-0.68896484375
233.232,-0.67822265625
233.242,-0.6953125
233.252,-0.7314453125
233.262,-0.76904296875
233.272,-0.79736328125
233.281,-0.81103515625
233.291,-0.80712890625
233.301,-0.78564453125
233.311,-0.7490234375
233.321,-0.7001953125
233.331,-0.650390625
233.341,-0.61376953125
233.351,-0.59765625
233.361,-0.60205078125
233.371,-0.62451171875
233.381,-0.654296875
233.391,-0.67333984375
233.401,-0.6630859375
233.411,-0.611328125
233.421,-0.51220703125
233.431,-0.369140625
233.441,-0.2076416015625
233.451,-0.06927490234375
233.461,0.0107498168945312
233.471,0.0267486572265625
233.479,-0.00122356414794922
233.489,-0.047210693359375
233.499,-0.0888671875
233.509,-0.108154296875
233.519,-0.09722900390625
233.529,-0.0628662109375
233.539,-0.0211181640625
233.549,0.0103607177734375
233.559,0.01812744140625
233.569,-0.00319671630859375
233.579,-0.05059814453125
233.589,-0.113037109375
233.599,-0.177001953125
233.609,-0.23876953125
233.619,-0.303466796875
233.629,-0.371826171875
233.639,-0.431884765625
233.649,-0.464599609375
233.659,-0.458740234375
233.669,-0.426513671875
233.673,-0.41455078125
233.683,-0.48388671875
233.693,-0.57080078125
233.703,-0.6611328125
233.713,-0.72802734375
233.723,-0.73876953125
233.733,-0.67431640625
233.743,-0.54248046875
233.753,-0.3701171875
233.763,-0.19287109375
233.773,-0.04412841796875
233.783,0.06170654296875
233.793,0.11810302734375
233.803,0.11968994140625
233.813,0.07501220703125
233.823,-3.40938568115234e-05
233.832,-0.10101318359375
233.842,-0.22412109375
233.852,-0.34814453125
233.862,-0.4482421875
233.872,-0.50927734375
233.882,-0.5234375
233.892,-0.49365234375
233.902,-0.441650390625
233.912,-0.386962890625
233.922,-0.34375
233.932,-0.325439453125
233.942,-0.330810546875
233.952,-0.343017578125
233.962,-0.35400390625
233.972,-0.370361328125
233.982,-0.40185546875
233.992,-0.45654296875
234.002,-0.5263671875
234.012,-0.58349609375
234.022,-0.59765625
234.031,-0.5576171875
234.041,-0.471435546875
234.051,-0.358642578125
234.061,-0.2381591796875
234.071,-0.12249755859375
234.081,-0.0244140625
234.091,0.04583740234375
234.101,0.087158203125
234.111,0.104736328125
234.121,0.10137939453125
234.131,0.07110595703125
234.141,0.006500244140625
234.151,-0.09124755859375
234.161,-0.2159423828125
234.171,-0.347900390625
234.181,-0.442138671875
234.191,-0.458251953125
234.201,-0.392333984375
234.211,-0.265380859375
234.221,-0.0985107421875
234.229,0.08526611328125
234.239,0.2486572265625
234.249,0.3525390625
234.259,0.383056640625
234.269,0.351318359375
234.279,0.277099609375
234.289,0.188232421875
234.299,0.1138916015625
234.309,0.06427001953125
234.319,0.026702880859375
234.329,-0.0182952880859375
234.339,-0.0858154296875
234.349,-0.1768798828125
234.359,-0.2763671875
234.369,-0.36669921875
234.379,-0.431396484375
234.389,-0.454833984375
234.399,-0.432861328125
234.409,-0.372802734375
234.419,-0.28759765625
234.423,0.124755859375
234.433,0.133544921875
234.443,0.11846923828125
234.453,0.087890625
234.463,0.054931640625
234.473,0.0236968994140625
234.483,-0.0146713256835938
234.493,-0.0633544921875
234.503,-0.1180419921875
234.513,-0.1807861328125
234.523,-0.254638671875
234.533,-0.32861328125
234.543,-0.37939453125
234.553,-0.3857421875
234.563,-0.33837890625
234.573,-0.24658203125
234.582,-0.1297607421875
234.592,-0.0124664306640625
