Time,AccelerometerX
82.251,-0.53173828125
82.271,-0.433837890625
82.281,-0.272216796875
82.291,-0.0914306640625
82.301,0.055511474609375
82.311,0.12127685546875
82.321,0.08209228515625
82.331,-0.0535888671875
82.341,-0.252685546875
82.351,-0.46044921875
82.361,-0.607421875
82.371,-0.64599609375
82.381,-0.58251953125
82.391,-0.471435546875
82.401,-0.370849609375
82.411,-0.30615234375
82.421,-0.28076171875
82.431,-0.2958984375
82.441,-0.34423828125
82.451,-0.4130859375
82.461,-0.489501953125
82.469,-0.5576171875
82.479,-0.609375
82.489,-0.64990234375
82.499,-0.689453125
82.509,-0.72119140625
82.519,-0.70703125
82.529,-0.6064453125
82.539,-0.4169921875
82.549,-0.1839599609375
82.559,0.0157928466796875
82.569,0.12042236328125
82.579,0.11474609375
82.589,0.0276336669921875
82.599,-0.09161376953125
82.609,-0.1986083984375
82.619,-0.26708984375
82.629,-0.28857421875
82.639,-0.27490234375
82.649,-0.2470703125
82.659,-0.2147216796875
82.663,-0.380615234375
82.673,-0.537109375
82.683,-0.7265625
82.693,-0.92138671875
82.703,-1.091796875
82.713,-1.20703125
82.723,-1.23828125
82.733,-1.16796875
82.743,-0.986328125
82.753,-0.7001953125
82.763,-0.367919921875
82.773,-0.08172607421875
82.783,0.09539794921875
82.793,0.1473388671875
82.803,0.08892822265625
82.813,-0.044158935546875
82.822,-0.2010498046875
82.832,-0.32861328125
82.842,-0.39599609375
82.852,-0.41259765625
82.862,-0.4072265625
82.872,-0.408203125
82.882,-0.44091796875
82.892,-0.52294921875
82.902,-0.6484375
82.912,-0.77001953125
82.922,-0.82177734375
82.932,-0.76953125
82.942,-0.6357421875
82.952,-0.48046875
82.962,-0.35986328125
82.972,-0.280517578125
82.982,-0.2127685546875
82.992,-0.1416015625
83.002,-0.085693359375
83.012,-0.07293701171875
83.021,-0.1181640625
83.031,-0.2177734375
83.041,-0.349609375
83.051,-0.479736328125
83.061,-0.58203125
83.071,-0.64892578125
83.081,-0.681640625
83.091,-0.6884765625
83.101,-0.685546875
83.111,-0.685546875
83.121,-0.6806640625
83.131,-0.6396484375
83.141,-0.5400390625
83.151,-0.392333984375
83.161,-0.234130859375
83.171,-0.11358642578125
83.181,-0.06060791015625
83.191,-0.07391357421875
83.201,-0.126220703125
83.211,-0.1815185546875
83.219,-0.2183837890625
83.229,-0.23681640625
83.239,-0.252685546875
83.249,-0.291015625
83.259,-0.359375
83.269,-0.433349609375
83.279,-0.48046875
83.289,-0.492431640625
83.299,-0.488037109375
83.309,-0.491943359375
83.319,-0.50537109375
83.329,-0.51220703125
83.339,-0.50732421875
83.349,-0.5029296875
83.359,-0.5087890625
83.369,-0.52001953125
83.379,-0.51513671875
83.389,-0.467041015625
83.399,-0.36572265625
83.409,-0.25439453125
83.413,-0.44091796875
83.423,-0.344482421875
83.433,-0.2030029296875
83.443,-0.05450439453125
83.453,0.0758056640625
83.463,0.1710205078125
83.473,0.2059326171875
83.483,0.1533203125
83.493,0.023223876953125
83.503,-0.1300048828125
83.513,-0.253173828125
83.523,-0.34765625
83.533,-0.466064453125
83.543,-0.64111328125
83.553,-0.81884765625
83.563,-0.8837890625
83.572,-0.7666015625
83.582,-0.51123046875
83.592,-0.2454833984375
83.602,-0.0794677734375
83.612,-0.03271484375
83.622,-0.056640625
83.632,-0.1090087890625
83.642,-0.189208984375
83.652,-0.306640625
83.662,-0.43701171875
83.672,-0.51220703125
83.682,-0.46923828125
83.692,-0.3271484375
83.702,-0.17919921875
83.712,-0.100830078125
83.722,-0.10369873046875
83.732,-0.15478515625
83.742,-0.218017578125
83.752,-0.28955078125
83.762,-0.3876953125
83.771,-0.5087890625
83.781,-0.611328125
83.791,-0.64599609375
83.801,-0.61572265625
83.811,-0.59228515625
83.821,-0.6572265625
83.831,-0.8203125
83.841,-0.99951171875
83.851,-1.083984375
83.861,-1.0361328125
83.871,-0.9140625
83.881,-0.794921875
83.891,-0.708984375
83.901,-0.64501953125
83.911,-0.5908203125
83.921,-0.5546875
83.931,-0.5595703125
83.941,-0.60888671875
83.951,-0.6640625
83.961,-0.68505859375
83.969,-0.66455078125
83.979,-0.6201171875
83.989,-0.5703125
83.999,-0.51416015625
84.009,-0.44384765625
84.019,-0.375
84.029,-0.3515625
84.039,-0.410400390625
84.049,-0.55419921875
84.059,-0.740234375
84.069,-0.89208984375
84.079,-0.94384765625
84.089,-0.89599609375
84.099,-0.8095703125
84.109,-0.75
84.119,-0.72900390625
84.129,-0.70263671875
84.139,-0.6240234375
84.149,-0.499267578125
84.159,-0.38818359375
84.163,-0.57080078125
84.173,-0.638671875
84.183,-0.6923828125
84.193,-0.70703125
84.203,-0.67041015625
84.213,-0.58349609375
84.223,-0.4736328125
84.233,-0.394287109375
84.243,-0.3837890625
84.253,-0.432861328125
84.263,-0.50048828125
84.273,-0.55517578125
84.283,-0.6064453125
84.293,-0.69091796875
84.303,-0.8369140625
84.313,-1.0283203125
84.322,-1.2060546875
84.332,-1.2978515625
84.342,-1.2529296875
84.352,-1.0595703125
84.362,-0.7529296875
84.372,-0.422607421875
84.382,-0.1651611328125
84.392,-0.03729248046875
84.402,-0.03369140625
84.412,-0.1153564453125
84.422,-0.25927734375
84.432,-0.468505859375
84.442,-0.7294921875
84.452,-0.97998046875
84.462,-1.125
84.472,-1.095703125
84.482,-0.8955078125
84.492,-0.59375
84.502,-0.28662109375
84.512,-0.048858642578125
84.52,0.091064453125
84.53,0.130859375
84.54,0.0718994140625
84.55,-0.07666015625
84.56,-0.28076171875
84.57,-0.479736328125
84.58,-0.6083984375
84.59,-0.6298828125
84.6,-0.5556640625
84.61,-0.44189453125
84.62,-0.36865234375
84.63,-0.39111328125
84.64,-0.486572265625
84.65,-0.5625
84.66,-0.54541015625
84.67,-0.44482421875
84.68,-0.335205078125
84.69,-0.285888671875
84.7,-0.318115234375
84.71,-0.401123046875
84.719,-0.4833984375
84.729,-0.53515625
84.739,-0.5654296875
84.749,-0.59619140625
84.759,-0.63525390625
84.769,-0.671875
84.779,-0.68505859375
84.789,-0.66455078125
84.799,-0.634765625
84.809,-0.64892578125
84.819,-0.75
84.829,-0.9267578125
84.839,-1.1025390625
84.849,-1.1845703125
84.859,-1.12109375
84.869,-0.93408203125
84.879,-0.72021484375
84.889,-0.59375
84.899,-0.6162109375
84.909,-0.76171875
84.913,-0.54296875
84.923,-0.38330078125
84.933,-0.330810546875
84.943,-0.3818359375
84.953,-0.491455078125
84.963,-0.59765625
84.973,-0.6533203125
84.983,-0.658203125
84.993,-0.6640625
85.003,-0.7373046875
85.013,-0.91064453125
85.023,-1.1572265625
85.033,-1.400390625
85.043,-1.53515625
85.053,-1.47265625
85.063,-1.189453125
85.072,-0.73046875
85.082,-0.1900634765625
85.092,0.3017578125
85.102,0.62744140625
85.112,0.7216796875
85.122,0.57373046875
85.132,0.2337646484375
85.142,-0.1983642578125
85.152,-0.61083984375
85.162,-0.939453125
85.172,-1.18359375
85.182,-1.37109375
85.192,-1.501953125
85.202,-1.544921875
85.212,-1.4736328125
85.222,-1.3115234375
85.232,-1.1162109375
85.242,-0.921875
85.252,-0.71435546875
85.262,-0.4794921875
85.27,-0.2274169921875
85.28,0.00142002105712891
85.29,0.1400146484375
85.3,0.1279296875
85.31,-0.03955078125
85.32,-0.30810546875
85.33,-0.59619140625
85.34,-0.81787109375
85.35,-0.90087890625
85.36,-0.81103515625
85.37,-0.58056640625
85.38,-0.302734375
85.39,-0.07916259765625
85.4,0.0360107421875
85.41,0.039031982421875
85.42,-0.06396484375
85.43,-0.28173828125
85.44,-0.61279296875
85.45,-1.01953125
85.46,-1.443359375
85.469,-1.822265625
85.479,-2.09765625
85.489,-2.234375
85.499,-2.212890625
85.509,-2.021484375
85.519,-1.646484375
85.529,-1.115234375
85.539,-0.5048828125
85.549,0.06243896484375
85.559,0.44921875
85.569,0.55517578125
85.579,0.36572265625
85.589,-0.038238525390625
85.599,-0.50732421875
85.609,-0.87646484375
85.619,-1.03125
85.629,-0.95654296875
85.639,-0.7119140625
85.649,-0.386962890625
85.659,-0.0692138671875
85.663,-0.330810546875
85.673,-0.69873046875
85.683,-0.96630859375
85.693,-1.0546875
85.703,-0.9599609375
85.713,-0.73583984375
85.723,-0.469482421875
85.733,-0.259033203125
85.743,-0.170166015625
85.753,-0.2098388671875
85.763,-0.33642578125
85.773,-0.482177734375
85.783,-0.58056640625
85.793,-0.5830078125
85.803,-0.47021484375
85.813,-0.25439453125
85.822,0.0250701904296875
85.832,0.312744140625
85.842,0.5302734375
85.852,0.59716796875
85.862,0.46435546875
85.872,0.135009765625
85.882,-0.327880859375
85.892,-0.8095703125
85.902,-1.1767578125
85.912,-1.322265625
85.922,-1.2099609375
85.932,-0.88818359375
85.942,-0.458251953125
85.952,-0.04083251953125
85.962,0.2491455078125
85.972,0.3447265625
85.982,0.257080078125
85.992,0.056304931640625
86.002,-0.169677734375
86.012,-0.35205078125
86.02,-0.47509765625
86.03,-0.5771484375
86.04,-0.71533203125
86.05,-0.91162109375
86.06,-1.126953125
86.07,-1.2861328125
86.08,-1.3193359375
86.09,-1.1962890625
86.1,-0.9326171875
86.11,-0.57958984375
86.12,-0.2138671875
86.13,0.07818603515625
86.14,0.225341796875
86.15,0.1961669921875
86.16,0.00172805786132812
86.17,-0.30859375
86.18,-0.66259765625
86.19,-0.9853515625
86.2,-1.2109375
86.21,-1.291015625
86.219,-1.2080078125
86.229,-0.98046875
86.239,-0.6796875
86.249,-0.41015625
86.259,-0.257080078125
86.269,-0.26123046875
86.279,-0.40869140625
86.289,-0.63720703125
86.299,-0.86865234375
86.309,-1.0283203125
86.319,-1.0546875
86.329,-0.90966796875
86.339,-0.59765625
86.349,-0.1817626953125
86.359,0.22216796875
86.369,0.487548828125
86.379,0.5283203125
86.389,0.3359375
86.399,-0.0153961181640625
86.409,-0.41455078125
86.413,-0.88525390625
86.423,-0.54638671875
86.433,-0.13427734375
86.443,0.252685546875
86.453,0.50634765625
86.463,0.54638671875
86.473,0.364013671875
86.483,0.0303497314453125
86.493,-0.322021484375
86.503,-0.54833984375
86.513,-0.5654296875
86.523,-0.373046875
86.533,-0.045318603515625
86.543,0.295654296875
86.553,0.52978515625
86.563,0.57861328125
86.572,0.42041015625
86.582,0.10174560546875
86.592,-0.27880859375
86.602,-0.609375
86.612,-0.79248046875
86.622,-0.7724609375
86.632,-0.55224609375
86.642,-0.177734375
86.652,0.27294921875
86.662,0.70068359375
86.672,0.99560546875
86.682,1.0625
86.692,0.86474609375
86.702,0.439453125
86.712,-0.10943603515625
86.722,-0.62939453125
86.732,-0.9794921875
86.742,-1.1025390625
86.752,-1.0361328125
86.762,-0.875
86.77,-0.7041015625
86.78,-0.55908203125
86.79,-0.42236328125
86.8,-0.264892578125
86.81,-0.0880126953125
86.82,0.0704345703125
86.83,0.1776123046875
86.84,0.2227783203125
86.85,0.193359375
86.86,0.0753173828125
86.87,-0.11529541015625
86.88,-0.320556640625
86.89,-0.457275390625
86.9,-0.460693359375
86.91,-0.3291015625
86.92,-0.1248779296875
86.93,0.057373046875
86.94,0.1297607421875
86.95,0.042388916015625
86.96,-0.207763671875
86.969,-0.56982421875
86.979,-0.9462890625
86.989,-1.220703125
86.999,-1.3076171875
87.009,-1.205078125
87.019,-0.98583984375
87.029,-0.73388671875
87.039,-0.5009765625
87.049,-0.30859375
87.059,-0.1673583984375
87.069,-0.0875244140625
87.079,-0.06939697265625
87.089,-0.10833740234375
87.099,-0.1983642578125
87.109,-0.314453125
87.119,-0.4130859375
87.129,-0.455322265625
87.139,-0.4228515625
87.149,-0.329833984375
87.159,-0.2183837890625
87.163,-0.22265625
87.173,-0.326171875
87.183,-0.458740234375
87.193,-0.5986328125
87.203,-0.69873046875
87.213,-0.70849609375
87.223,-0.59521484375
87.233,-0.370849609375
87.243,-0.109619140625
87.253,0.0966796875
87.263,0.1871337890625
87.273,0.14990234375
87.283,0.01727294921875
87.293,-0.1578369140625
87.303,-0.327880859375
87.313,-0.467529296875
87.322,-0.56591796875
87.332,-0.60986328125
87.342,-0.58740234375
87.352,-0.5078125
87.362,-0.39892578125
87.372,-0.3046875
87.382,-0.2666015625
87.392,-0.30419921875
87.402,-0.406005859375
87.412,-0.53662109375
87.422,-0.6494140625
87.432,-0.701171875
87.442,-0.671875
87.452,-0.576171875
87.462,-0.43359375
87.472,-0.2498779296875
87.482,-0.042083740234375
87.492,0.1490478515625
87.502,0.275390625
87.512,0.302490234375
87.52,0.2156982421875
87.53,0.0273895263671875
87.54,-0.2191162109375
87.55,-0.476318359375
87.56,-0.71484375
87.57,-0.90380859375
87.58,-1.0078125
87.59,-1.01171875
87.6,-0.9228515625
87.61,-0.765625
87.62,-0.583984375
87.63,-0.42138671875
87.64,-0.300048828125
87.65,-0.2392578125
87.66,-0.2607421875
87.67,-0.35791015625
87.68,-0.474853515625
87.69,-0.54736328125
87.7,-0.5576171875
87.71,-0.541015625
87.719,-0.5615234375
87.729,-0.65966796875
87.739,-0.80712890625
87.749,-0.9296875
87.759,-0.978515625
87.769,-0.97119140625
87.779,-0.97216796875
87.789,-1.033203125
87.799,-1.1650390625
87.809,-1.3427734375
87.819,-1.5068359375
87.829,-1.5830078125
87.839,-1.51171875
87.849,-1.28515625
87.859,-0.9521484375
87.869,-0.60205078125
87.879,-0.323486328125
87.889,-0.184814453125
87.899,-0.23876953125
87.909,-0.515625
87.913,-2.642578125
87.923,-2.498046875
87.933,-2.109375
87.943,-1.5654296875
87.953,-0.978515625
87.963,-0.439697265625
87.973,-0.009368896484375
87.983,0.269775390625
87.993,0.37548828125
88.003,0.31884765625
88.013,0.14404296875
88.023,-0.08148193359375
88.033,-0.289794921875
88.043,-0.4375
88.053,-0.51708984375
88.063,-0.5556640625
88.072,-0.6015625
88.082,-0.70654296875
88.092,-0.90966796875
88.102,-1.208984375
88.112,-1.552734375
88.122,-1.85546875
88.132,-2.03515625
88.142,-2.048828125
88.152,-1.896484375
88.162,-1.623046875
88.172,-1.291015625
88.182,-0.96337890625
88.192,-0.68896484375
88.202,-0.50341796875
88.212,-0.418212890625
88.222,-0.418212890625
88.232,-0.466552734375
88.242,-0.5244140625
88.252,-0.57763671875
88.262,-0.63818359375
88.27,-0.72021484375
88.28,-0.81689453125
88.29,-0.9033203125
88.3,-0.95458984375
88.31,-0.9697265625
88.32,-0.9755859375
88.33,-1.0009765625
88.34,-1.056640625
88.35,-1.126953125
88.36,-1.1787109375
88.37,-1.1748046875
88.38,-1.10546875
88.39,-0.98779296875
88.4,-0.85546875
88.41,-0.7451171875
88.42,-0.685546875
88.43,-0.68115234375
88.44,-0.7119140625
88.45,-0.74755859375
88.46,-0.7646484375
88.469,-0.75244140625
88.479,-0.71142578125
88.489,-0.65771484375
88.499,-0.611328125
88.509,-0.58447265625
88.519,-0.5908203125
88.529,-0.6318359375
88.539,-0.68505859375
88.549,-0.7216796875
88.559,-0.72216796875
88.569,-0.6728515625
88.579,-0.57958984375
88.589,-0.468505859375
88.599,-0.3603515625
88.609,-0.264892578125
88.619,-0.1881103515625
88.629,-0.126953125
88.639,-0.07342529296875
88.649,-0.029541015625
88.659,-0.00129985809326172
88.663,-0.264404296875
88.673,-0.373291015625
88.683,-0.499267578125
88.693,-0.63134765625
88.703,-0.74658203125
88.713,-0.81591796875
88.723,-0.82421875
88.733,-0.78369140625
88.743,-0.7275390625
88.753,-0.70166015625
88.763,-0.73828125
88.773,-0.8359375
88.783,-0.95703125
88.793,-1.05078125
88.803,-1.0849609375
88.813,-1.064453125
88.821,-1.0224609375
88.831,-0.98876953125
88.841,-0.96533203125
88.851,-0.931640625
88.861,-0.87451171875
88.871,-0.80859375
88.881,-0.76171875
88.891,-0.7470703125
88.901,-0.75439453125
88.911,-0.77880859375
88.921,-0.8251953125
88.931,-0.8876953125
88.941,-0.94140625
88.951,-0.96728515625
88.961,-0.97216796875
88.971,-0.9716796875
88.981,-0.97119140625
88.991,-0.96630859375
89.001,-0.9541015625
89.011,-0.94287109375
89.02,-0.9365234375
89.03,-0.92236328125
89.04,-0.88818359375
89.05,-0.8408203125
89.06,-0.798828125
89.07,-0.7666015625
89.08,-0.744140625
89.09,-0.73974609375
89.1,-0.7509765625
89.11,-0.76220703125
89.12,-0.76953125
89.13,-0.78857421875
89.14,-0.82568359375
89.15,-0.87255859375
89.16,-0.92431640625
89.17,-0.98291015625
89.18,-1.0380859375
89.19,-1.0771484375
89.2,-1.0986328125
89.21,-1.10546875
89.219,-1.0908203125
89.229,-1.0498046875
89.239,-0.9892578125
89.249,-0.91552734375
89.259,-0.845703125
89.269,-0.79931640625
89.279,-0.7861328125
89.289,-0.8017578125
89.299,-0.837890625
89.309,-0.87939453125
89.319,-0.91259765625
89.329,-0.93408203125
89.339,-0.95263671875
89.349,-0.9755859375
89.359,-1
89.369,-1.01953125
89.379,-1.0322265625
89.389,-1.0380859375
89.399,-1.037109375
89.409,-1.03125
89.413,-0.91015625
89.423,-0.8935546875
89.433,-0.88916015625
89.443,-0.8896484375
89.453,-0.876953125
89.463,-0.84130859375
89.473,-0.78564453125
89.483,-0.72412109375
89.493,-0.6787109375
89.503,-0.671875
89.513,-0.71337890625
89.523,-0.7919921875
89.533,-0.88427734375
89.543,-0.9658203125
89.553,-1.01953125
89.563,-1.0361328125
89.571,-1.015625
89.581,-0.9697265625
89.591,-0.90966796875
89.601,-0.85009765625
89.611,-0.810546875
89.621,-0.80517578125
89.631,-0.83544921875
89.641,-0.88134765625
89.651,-0.91650390625
89.661,-0.93115234375
89.671,-0.93017578125
89.681,-0.91748046875
89.691,-0.8935546875
89.701,-0.87060546875
89.711,-0.86279296875
89.721,-0.87744140625
89.731,-0.9150390625
89.741,-0.96875
89.751,-1.0244140625
89.761,-1.06640625
89.77,-1.07421875
89.78,-1.03125
89.79,-0.93408203125
89.8,-0.7939453125
89.81,-0.6376953125
89.82,-0.497802734375
89.83,-0.396484375
89.84,-0.341796875
89.85,-0.33740234375
89.86,-0.382568359375
89.87,-0.47119140625
89.88,-0.58984375
89.89,-0.72265625
89.9,-0.85498046875
89.91,-0.97314453125
89.92,-1.0634765625
89.93,-1.11328125
89.94,-1.115234375
89.95,-1.072265625
89.96,-0.9990234375
89.969,-0.90673828125
89.979,-0.81396484375
89.989,-0.74560546875
89.999,-0.71435546875
90.009,-0.71826171875
90.019,-0.74609375
90.029,-0.7763671875
90.039,-0.77685546875
90.049,-0.72509765625
90.059,-0.61962890625
90.069,-0.47607421875
90.079,-0.32421875
90.089,-0.1983642578125
90.099,-0.1256103515625
90.109,-0.1177978515625
90.119,-0.172119140625
90.129,-0.278076171875
90.139,-0.42333984375
90.149,-0.591796875
90.159,-0.7626953125
90.163,-0.98974609375
90.173,-0.85595703125
90.183,-0.7099609375
90.193,-0.59228515625
90.203,-0.52978515625
90.213,-0.529296875
90.223,-0.5771484375
90.233,-0.65576171875
90.243,-0.7509765625
90.253,-0.85400390625
90.263,-0.95849609375
90.273,-1.0556640625
90.283,-1.1279296875
90.293,-1.1552734375
90.303,-1.1318359375
90.313,-1.068359375
90.321,-0.98681640625
90.331,-0.912109375
90.341,-0.86669921875
90.351,-0.857421875
90.361,-0.876953125
90.371,-0.9111328125
90.381,-0.947265625
90.391,-0.96923828125
90.401,-0.96435546875
90.411,-0.93212890625
90.421,-0.8779296875
90.431,-0.81201171875
90.441,-0.7431640625
90.451,-0.68212890625
90.461,-0.63525390625
90.471,-0.60595703125
90.481,-0.59130859375
90.491,-0.58154296875
90.501,-0.56640625
90.511,-0.54443359375
90.52,-0.525390625
90.53,-0.5263671875
90.54,-0.56005859375
90.55,-0.623046875
90.56,-0.70556640625
90.57,-0.796875
90.58,-0.89208984375
90.59,-0.98876953125
90.6,-1.0732421875
90.61,-1.1298828125
90.62,-1.1533203125
90.63,-1.1396484375
90.64,-1.0810546875
90.65,-0.98388671875
90.66,-0.8779296875
90.67,-0.80078125
90.68,-0.76708984375
90.69,-0.771484375
90.7,-0.7998046875
90.71,-0.82763671875
90.719,-0.82861328125
90.729,-0.796875
90.739,-0.7451171875
90.749,-0.67822265625
90.759,-0.59619140625
90.769,-0.50537109375
90.779,-0.419921875
90.789,-0.35693359375
90.799,-0.336181640625
90.809,-0.3642578125
90.819,-0.430419921875
90.829,-0.525390625
90.839,-0.64404296875
90.849,-0.765625
90.859,-0.86767578125
90.869,-0.94677734375
90.879,-0.9990234375
90.889,-1.00390625
90.899,-0.94921875
90.909,-0.84765625
90.913,-0.452880859375
90.923,-0.5126953125
90.933,-0.626953125
90.943,-0.77197265625
90.953,-0.904296875
90.963,-0.9931640625
90.973,-1.0205078125
90.983,-0.97216796875
90.993,-0.84619140625
91.003,-0.66455078125
91.013,-0.45361328125
91.023,-0.2401123046875
91.033,-0.0640869140625
91.043,0.0350341796875
91.053,0.04559326171875
91.063,-0.0168609619140625
91.071,-0.1297607421875
91.081,-0.27001953125
91.091,-0.408447265625
91.101,-0.515625
91.111,-0.57861328125
91.121,-0.5986328125
91.131,-0.57763671875
91.141,-0.52197265625
91.151,-0.453369140625
91.161,-0.396728515625
91.171,-0.35986328125
91.181,-0.33251953125
91.191,-0.311279296875
91.201,-0.3076171875
91.211,-0.3330078125
91.221,-0.3798828125
91.231,-0.4296875
91.241,-0.469970703125
91.251,-0.49365234375
91.261,-0.498779296875
91.27,-0.492919921875
91.28,-0.483154296875
91.29,-0.464111328125
91.3,-0.4228515625
91.31,-0.35693359375
91.32,-0.271484375
91.33,-0.1663818359375
91.34,-0.04742431640625
91.35,0.058868408203125
91.36,0.117919921875
91.37,0.10809326171875
91.38,0.031005859375
91.39,-0.09033203125
91.4,-0.2293701171875
91.41,-0.378662109375
91.42,-0.53955078125
91.43,-0.693359375
91.44,-0.79931640625
91.45,-0.830078125
91.46,-0.77783203125
91.469,-0.65087890625
91.479,-0.47607421875
91.489,-0.298828125
91.499,-0.15771484375
91.509,-0.076904296875
91.519,-0.07110595703125
91.529,-0.136962890625
91.539,-0.251220703125
91.549,-0.38134765625
91.559,-0.49755859375
91.569,-0.587890625
91.579,-0.6611328125
91.589,-0.7314453125
91.599,-0.80078125
91.609,-0.8525390625
91.619,-0.86669921875
91.629,-0.83837890625
91.639,-0.7802734375
91.649,-0.7158203125
91.659,-0.6591796875
91.663,-0.42333984375
91.673,-0.447265625
91.683,-0.48193359375
91.693,-0.499267578125
91.703,-0.486083984375
91.713,-0.444091796875
91.723,-0.391357421875
91.733,-0.34814453125
91.743,-0.31494140625
91.753,-0.283935546875
91.763,-0.25927734375
91.773,-0.25
91.783,-0.25634765625
91.793,-0.26806640625
91.803,-0.2705078125
91.813,-0.25634765625
91.821,-0.2271728515625
91.831,-0.189697265625
91.841,-0.149169921875
91.851,-0.10699462890625
91.861,-0.06524658203125
91.871,-0.033538818359375
91.881,-0.0228424072265625
91.891,-0.035003662109375
91.901,-0.062255859375
91.911,-0.09820556640625
91.921,-0.1461181640625
91.931,-0.2071533203125
91.941,-0.26611328125
91.951,-0.296875
91.961,-0.27783203125
91.971,-0.2080078125
91.981,-0.1064453125
91.991,0.00406646728515625
92.001,0.10687255859375
92.011,0.1890869140625
92.02,0.2418212890625
92.03,0.257080078125
92.04,0.228271484375
92.05,0.1575927734375
92.06,0.061981201171875
92.07,-0.03363037109375
92.08,-0.10888671875
92.09,-0.1556396484375
92.1,-0.1708984375
92.11,-0.150146484375
92.12,-0.09173583984375
92.13,-0.00437164306640625
92.14,0.0877685546875
92.15,0.1585693359375
92.16,0.19873046875
92.17,0.2083740234375
92.18,0.18603515625
92.19,0.1351318359375
92.2,0.06280517578125
92.21,-0.022064208984375
92.219,-0.101806640625
92.229,-0.157958984375
92.239,-0.1834716796875
92.249,-0.1776123046875
92.259,-0.14013671875
92.269,-0.072998046875
92.279,0.0190277099609375
92.289,0.11767578125
92.299,0.197998046875
92.309,0.254150390625
92.319,0.29296875
92.329,0.310791015625
92.339,0.302001953125
92.349,0.26953125
92.359,0.213623046875
92.369,0.1319580078125
92.379,0.030426025390625
92.389,-0.0714111328125
92.399,-0.141845703125
92.409,-0.154052734375
92.413,0.25927734375
92.423,0.2744140625
92.433,0.2479248046875
92.443,0.1876220703125
92.453,0.10748291015625
92.463,0.01849365234375
92.473,-0.07476806640625
92.483,-0.1641845703125
92.493,-0.2294921875
92.503,-0.250732421875
92.513,-0.2239990234375
92.523,-0.1566162109375
92.533,-0.06451416015625
92.543,0.02972412109375
92.553,0.10333251953125
92.563,0.1419677734375
92.571,0.1409912109375
92.581,0.10296630859375
92.591,0.040435791015625
92.601,-0.0245513916015625
92.611,-0.07684326171875
92.621,-0.11395263671875
92.631,-0.13671875
92.641,-0.1451416015625
92.651,-0.142333984375
92.661,-0.1356201171875
92.671,-0.1273193359375
92.681,-0.11224365234375
92.691,-0.09100341796875
92.701,-0.07354736328125
92.711,-0.0653076171875
92.721,-0.06170654296875
92.731,-0.060302734375
92.741,-0.06292724609375
92.751,-0.06561279296875
92.761,-0.06072998046875
92.77,-0.05010986328125
92.78,-0.04443359375
92.79,-0.0498046875
92.8,-0.06341552734375
92.81,-0.08270263671875
92.82,-0.1083984375
92.83,-0.136962890625
92.84,-0.160888671875
92.85,-0.1756591796875
92.86,-0.1802978515625
92.87,-0.1732177734375
92.88,-0.1529541015625
92.89,-0.12164306640625
92.9,-0.08245849609375
92.91,-0.0382080078125
92.92,0.00457382202148438
92.93,0.0367431640625
92.94,0.05426025390625
92.95,0.0574951171875
92.96,0.048065185546875
92.965,-0.0111618041992188
92.975,-0.00700759887695312
92.985,0.00161933898925781
92.995,0.0142669677734375
93.005,0.031768798828125
93.015,0.05584716796875
93.025,0.08575439453125
93.035,0.11810302734375
93.045,0.1483154296875
93.055,0.171142578125
93.065,0.182373046875
93.075,0.18359375
93.085,0.18310546875
93.095,0.188232421875
93.105,0.1971435546875
93.115,0.2012939453125
93.122,0.1949462890625
93.132,0.1778564453125
93.142,0.1514892578125
93.152,0.11932373046875
93.162,0.08837890625
93.172,0.06610107421875
93.182,0.052154541015625
93.192,0.041046142578125
93.202,0.035247802734375
93.212,0.04473876953125
93.222,0.06903076171875
93.232,0.09356689453125
93.242,0.1063232421875
93.252,0.10772705078125
93.262,0.10491943359375
93.272,0.1025390625
93.282,0.10076904296875
93.292,0.09814453125
93.302,0.09234619140625
93.312,0.08148193359375
93.321,0.0673828125
93.331,0.054840087890625
93.341,0.049346923828125
93.351,0.05389404296875
93.361,0.06512451171875
93.371,0.07330322265625
93.381,0.0699462890625
93.391,0.059173583984375
93.401,0.05322265625
93.411,0.06011962890625
93.421,0.07501220703125
93.431,0.0811767578125
93.441,0.06634521484375
93.451,0.0307464599609375
93.461,-0.019134521484375
93.471,-0.07391357421875
93.481,-0.12298583984375
93.491,-0.155517578125
93.501,-0.1636962890625
93.511,-0.1468505859375
93.52,-0.1092529296875
93.53,-0.059295654296875
93.54,-0.0099334716796875
93.55,0.027862548828125
93.56,0.049285888671875
93.57,0.056182861328125
93.58,0.052764892578125
93.59,0.036773681640625
93.6,0.000121653079986572
93.61,-0.057891845703125
93.62,-0.1241455078125
93.63,-0.182373046875
93.64,-0.2222900390625
93.65,-0.238037109375
93.66,-0.2301025390625
93.67,-0.2064208984375
93.68,-0.169921875
93.69,-0.11895751953125
93.7,-0.0601806640625
93.71,-0.00716400146484375
93.715,0.0428466796875
93.725,0.0404052734375
93.735,0.042083740234375
93.745,0.042327880859375
93.755,0.04498291015625
93.765,0.05328369140625
93.775,0.0653076171875
93.785,0.08026123046875
93.795,0.09271240234375
93.805,0.08984375
93.815,0.06939697265625
93.825,0.041473388671875
93.835,0.00884246826171875
93.845,-0.0328369140625
93.855,-0.0811767578125
93.865,-0.13232421875
93.872,-0.183349609375
93.882,-0.21826171875
93.892,-0.218017578125
93.902,-0.18017578125
93.912,-0.11407470703125
93.922,-0.0340576171875
93.932,0.033599853515625
93.942,0.06536865234375
93.952,0.059967041015625
93.962,0.027984619140625
93.972,-0.018768310546875
93.982,-0.0657958984375
93.992,-0.10302734375
94.002,-0.130615234375
94.012,-0.1473388671875
94.022,-0.145751953125
94.032,-0.1298828125
94.042,-0.118408203125
94.052,-0.1195068359375
94.062,-0.128662109375
94.071,-0.14404296875
94.081,-0.1590576171875
94.091,-0.1556396484375
94.101,-0.1263427734375
94.111,-0.0869140625
94.121,-0.052825927734375
94.131,-0.02703857421875
94.141,-0.019012451171875
94.151,-0.04205322265625
94.161,-0.08502197265625
94.171,-0.119873046875
94.181,-0.1339111328125
94.191,-0.1292724609375
94.201,-0.10650634765625
94.211,-0.07147216796875
94.221,-0.042388916015625
94.231,-0.03411865234375
94.241,-0.046234130859375
94.251,-0.06988525390625
94.261,-0.09320068359375
94.27,-0.1072998046875
94.28,-0.1168212890625
94.29,-0.1265869140625
94.3,-0.1263427734375
94.31,-0.11138916015625
94.32,-0.0977783203125
94.33,-0.0955810546875
94.34,-0.0972900390625
94.35,-0.1002197265625
94.36,-0.11187744140625
94.37,-0.1343994140625
94.38,-0.1630859375
94.39,-0.189697265625
94.4,-0.2032470703125
94.41,-0.1993408203125
94.42,-0.186279296875
94.43,-0.16943359375
94.44,-0.1435546875
94.45,-0.10601806640625
94.46,-0.06494140625
94.465,-0.264892578125
94.475,-0.355712890625
94.485,-0.41650390625
94.495,-0.437744140625
94.505,-0.4228515625
94.515,-0.379638671875
94.525,-0.31787109375
94.535,-0.252197265625
94.545,-0.202392578125
94.555,-0.1817626953125
94.565,-0.185546875
94.575,-0.194580078125
94.585,-0.19580078125
94.595,-0.1925048828125
94.605,-0.195556640625
94.615,-0.2108154296875
94.622,-0.22998046875
94.632,-0.234375
94.642,-0.210693359375
94.652,-0.1629638671875
94.662,-0.1126708984375
94.672,-0.09033203125
94.682,-0.116455078125
94.692,-0.1865234375
94.702,-0.276611328125
94.712,-0.354736328125
94.722,-0.390625
94.732,-0.37158203125
94.742,-0.3095703125
94.752,-0.228271484375
94.762,-0.15771484375
94.772,-0.128662109375
94.782,-0.160888671875
94.792,-0.26220703125
94.802,-0.432373046875
94.812,-0.65087890625
94.821,-0.87255859375
94.831,-1.048828125
94.841,-1.154296875
94.851,-1.1904296875
94.861,-1.1640625
94.871,-1.0888671875
94.881,-0.9931640625
94.891,-0.90771484375
94.901,-0.8486328125
94.911,-0.81396484375
94.921,-0.802734375
94.931,-0.81640625
94.941,-0.8515625
94.951,-0.89599609375
94.961,-0.93115234375
94.971,-0.9423828125
94.981,-0.9267578125
94.991,-0.89794921875
95.001,-0.8701171875
95.011,-0.84814453125
95.02,-0.83935546875
95.03,-0.84912109375
95.04,-0.87109375
95.05,-0.892578125
95.06,-0.90673828125
95.07,-0.90869140625
95.08,-0.890625
95.09,-0.85791015625
95.1,-0.82861328125
95.11,-0.81396484375
95.12,-0.8154296875
95.13,-0.837890625
95.14,-0.8818359375
95.15,-0.93896484375
95.16,-0.994140625
95.17,-1.029296875
95.18,-1.03125
95.19,-1.00390625
95.2,-0.96240234375
95.21,-0.92041015625
95.215,-0.91552734375
95.225,-0.93701171875
95.235,-0.94580078125
95.245,-0.93798828125
95.255,-0.90625
95.265,-0.84423828125
95.275,-0.76025390625
95.285,-0.6728515625
95.295,-0.60205078125
95.305,-0.564453125
95.315,-0.5693359375
95.325,-0.6162109375
95.335,-0.69921875
95.345,-0.81103515625
95.355,-0.93408203125
95.365,-1.04296875
95.372,-1.12109375
95.382,-1.1572265625
95.392,-1.150390625
95.402,-1.1083984375
95.412,-1.046875
95.422,-0.97509765625
95.432,-0.90087890625
95.442,-0.83984375
95.452,-0.80908203125
95.462,-0.81591796875
95.472,-0.8525390625
95.482,-0.89990234375
95.492,-0.93701171875
95.502,-0.95263671875
95.512,-0.94970703125
95.522,-0.9326171875
95.532,-0.89599609375
95.542,-0.83544921875
95.552,-0.7587890625
95.562,-0.69091796875
95.571,-0.6640625
95.581,-0.6953125
95.591,-0.775390625
95.601,-0.8759765625
95.611,-0.9638671875
95.621,-1.015625
95.631,-1.0244140625
95.641,-0.99365234375
95.651,-0.9375
95.661,-0.880859375
95.671,-0.841796875
95.681,-0.82275390625
95.691,-0.8173828125
95.701,-0.82275390625
95.711,-0.8349609375
95.721,-0.8466796875
95.731,-0.8515625
95.741,-0.849609375
95.751,-0.84130859375
95.761,-0.82568359375
95.77,-0.802734375
95.78,-0.7734375
95.79,-0.736328125
95.8,-0.69091796875
95.81,-0.64599609375
95.82,-0.6220703125
95.83,-0.6357421875
95.84,-0.68994140625
95.85,-0.7744140625
95.86,-0.87548828125
95.87,-0.9755859375
95.88,-1.0546875
95.89,-1.0966796875
95.9,-1.09375
95.91,-1.0556640625
95.92,-0.99755859375
95.93,-0.93603515625
95.94,-0.8857421875
95.95,-0.849609375
95.96,-0.81982421875
95.965,-0.81982421875
95.975,-0.87109375
95.985,-0.90234375
95.995,-0.8876953125
96.005,-0.82568359375
96.015,-0.7392578125
96.025,-0.6533203125
96.035,-0.58544921875
96.045,-0.5458984375
96.055,-0.53662109375
96.065,-0.56005859375
96.075,-0.611328125
96.085,-0.6708984375
96.095,-0.72216796875
96.105,-0.7578125
96.115,-0.775390625
96.122,-0.7822265625
96.132,-0.791015625
96.142,-0.8046875
96.152,-0.81396484375
96.162,-0.81640625
96.172,-0.8173828125
96.182,-0.82177734375
96.192,-0.8271484375
96.202,-0.8173828125
96.212,-0.77978515625
96.222,-0.716796875
96.232,-0.63916015625
96.242,-0.56005859375
96.252,-0.501953125
96.262,-0.4921875
96.272,-0.5498046875
96.282,-0.65966796875
96.292,-0.78466796875
96.302,-0.89306640625
96.312,-0.96142578125
96.321,-0.98779296875
96.331,-0.986328125
96.341,-0.9609375
96.351,-0.9189453125
96.361,-0.87109375
96.371,-0.81103515625
96.381,-0.73779296875
96.391,-0.66455078125
96.401,-0.6005859375
96.411,-0.5576171875
96.421,-0.5615234375
96.431,-0.61962890625
96.441,-0.7158203125
96.451,-0.8310546875
96.461,-0.93603515625
96.471,-0.99462890625
96.481,-0.99658203125
96.491,-0.95458984375
96.501,-0.87548828125
96.511,-0.7734375
96.52,-0.669921875
96.53,-0.57666015625
96.54,-0.50634765625
96.55,-0.47998046875
96.56,-0.50439453125
96.57,-0.57958984375
96.58,-0.69921875
96.59,-0.8271484375
96.6,-0.9169921875
96.61,-0.93994140625
96.62,-0.8828125
96.63,-0.76611328125
96.64,-0.63818359375
96.65,-0.53369140625
96.66,-0.46826171875
96.67,-0.4404296875
96.68,-0.437744140625
96.69,-0.448486328125
96.7,-0.4580078125
96.71,-0.455322265625
96.715,-0.2332763671875
96.725,-0.1322021484375
96.735,-0.05633544921875
96.745,-0.03643798828125
96.755,-0.0726318359375
96.765,-0.15673828125
96.775,-0.277099609375
96.785,-0.407958984375
96.795,-0.53369140625
96.805,-0.6494140625
96.815,-0.74072265625
96.825,-0.80322265625
96.835,-0.84765625
96.845,-0.875
96.855,-0.8779296875
96.865,-0.85888671875
96.872,-0.8212890625
96.882,-0.765625
96.892,-0.7001953125
96.902,-0.6337890625
96.912,-0.56640625
96.922,-0.494873046875
96.932,-0.415283203125
96.942,-0.325439453125
96.952,-0.2332763671875
96.962,-0.1622314453125
96.972,-0.132080078125
96.982,-0.1346435546875
96.992,-0.1563720703125
97.002,-0.197265625
97.012,-0.253173828125
97.022,-0.309814453125
97.032,-0.353759765625
97.042,-0.373291015625
97.052,-0.369384765625
97.062,-0.36083984375
97.071,-0.362548828125
97.081,-0.35595703125
97.091,-0.301513671875
97.101,-0.1951904296875
97.111,-0.08245849609375
97.121,-0.00722885131835938
97.131,0.0166473388671875
97.141,-0.000586509704589844
97.151,-0.0191650390625
97.161,0.00588607788085938
97.171,0.0714111328125
97.181,0.13134765625
97.191,0.1524658203125
97.201,0.138916015625
97.211,0.112548828125
97.221,0.08355712890625
97.231,0.04205322265625
97.241,-0.01611328125
97.251,-0.07476806640625
97.261,-0.12158203125
97.269,-0.155517578125
97.279,-0.1785888671875
97.289,-0.194580078125
97.299,-0.1943359375
97.309,-0.164306640625
97.319,-0.113037109375
97.329,-0.056793212890625
97.339,-0.0024566650390625
97.349,0.03509521484375
97.359,0.03326416015625
97.369,-0.0208587646484375
97.379,-0.1282958984375
97.389,-0.270263671875
97.399,-0.408935546875
97.409,-0.5087890625
97.419,-0.544921875
97.429,-0.494140625
97.439,-0.357666015625
97.449,-0.1787109375
97.459,-0.0162506103515625
97.463,-0.40625
97.473,-0.56494140625
97.483,-0.666015625
97.493,-0.68798828125
97.503,-0.6298828125
97.513,-0.50048828125
97.523,-0.329345703125
97.533,-0.1669921875
97.543,-0.061614990234375
97.553,-0.03436279296875
97.563,-0.0750732421875
97.573,-0.1495361328125
97.583,-0.2203369140625
97.593,-0.26708984375
97.603,-0.282958984375
97.613,-0.26806640625
97.622,-0.237060546875
97.632,-0.215576171875
97.642,-0.216552734375
97.652,-0.2320556640625
97.662,-0.255859375
97.672,-0.299072265625
97.682,-0.369384765625
97.692,-0.452392578125
97.702,-0.5126953125
97.712,-0.51220703125
97.722,-0.438720703125
97.732,-0.31396484375
97.742,-0.1656494140625
97.752,-0.0279541015625
97.762,0.060089111328125
97.772,0.08343505859375
97.782,0.055145263671875
97.792,-0.00159454345703125
97.802,-0.06182861328125
97.812,-0.11138916015625
97.821,-0.152099609375
97.831,-0.181396484375
97.841,-0.18115234375
97.851,-0.13671875
97.861,-0.057525634765625
97.871,0.03045654296875
97.881,0.10162353515625
97.891,0.142822265625
97.901,0.1551513671875
97.911,0.14306640625
97.921,0.106689453125
97.931,0.0426025390625
97.941,-0.047149658203125
97.951,-0.1451416015625
97.961,-0.224365234375
97.971,-0.262939453125
97.981,-0.24951171875
97.991,-0.1827392578125
98.001,-0.073974609375
98.011,0.053314208984375
98.019,0.1658935546875
98.029,0.23291015625
98.039,0.238525390625
98.049,0.1884765625
98.059,0.105712890625
98.069,0.0137100219726562
98.079,-0.07049560546875
98.089,-0.130126953125
98.099,-0.146484375
98.109,-0.11163330078125
98.119,-0.03765869140625
98.129,0.04937744140625
98.139,0.12432861328125
98.149,0.1746826171875
98.159,0.200927734375
98.169,0.2069091796875
98.179,0.1983642578125
98.189,0.1846923828125
98.199,0.1685791015625
98.209,0.1412353515625
98.213,-0.08074951171875
98.223,-0.06634521484375
98.233,-0.0316162109375
98.243,0.00803375244140625
98.253,0.03948974609375
98.263,0.058563232421875
98.273,0.06756591796875
98.283,0.06842041015625
98.293,0.059234619140625
98.303,0.04205322265625
98.313,0.0296783447265625
98.323,0.033355712890625
98.333,0.0477294921875
98.343,0.054351806640625
98.353,0.03839111328125
98.363,-0.00188159942626953
98.372,-0.0584716796875
98.382,-0.11663818359375
98.392,-0.156005859375
98.402,-0.1591796875
98.412,-0.1234130859375
98.422,-0.06158447265625
98.432,0.004302978515625
98.442,0.051971435546875
98.452,0.0693359375
98.462,0.056060791015625
98.472,0.016021728515625
98.482,-0.042510986328125
98.492,-0.106201171875
98.502,-0.163330078125
98.512,-0.20263671875
98.522,-0.209716796875
98.532,-0.177001953125
98.542,-0.113525390625
98.552,-0.039947509765625
98.562,0.0237884521484375
98.571,0.06005859375
98.581,0.0521240234375
98.591,-0.00376510620117188
98.601,-0.0926513671875
98.611,-0.1923828125
98.621,-0.282470703125
98.631,-0.343505859375
98.641,-0.35888671875
98.651,-0.321044921875
98.661,-0.2420654296875
98.671,-0.146484375
98.681,-0.057861328125
98.691,0.0060272216796875
98.701,0.03326416015625
98.711,0.0262298583984375
98.721,0.00367164611816406
98.731,-0.01287841796875
98.741,-0.0138320922851562
98.751,-0.00112438201904297
98.761,0.02105712890625
98.769,0.04913330078125
98.779,0.07757568359375
98.789,0.09906005859375
98.799,0.10540771484375
98.809,0.09246826171875
98.819,0.06915283203125
98.829,0.05621337890625
98.839,0.070556640625
98.849,0.11065673828125
98.859,0.1607666015625
98.869,0.205810546875
98.879,0.235595703125
98.889,0.240234375
98.899,0.211669921875
98.909,0.1539306640625
98.919,0.0833740234375
98.929,0.0172576904296875
98.939,-0.033599853515625
98.949,-0.0628662109375
98.959,-0.06842041015625
98.963,0.0704345703125
98.973,0.0538330078125
98.983,0.0175933837890625
98.993,-0.0275421142578125
99.003,-0.07208251953125
99.013,-0.1094970703125
99.023,-0.1409912109375
99.033,-0.16748046875
99.043,-0.178955078125
99.053,-0.16650390625
99.063,-0.1324462890625
99.073,-0.0845947265625
99.083,-0.029937744140625
99.093,0.0205841064453125
99.103,0.053863525390625
99.113,0.06134033203125
99.122,0.0400390625
99.132,-0.008392333984375
99.142,-0.07586669921875
99.152,-0.14404296875
99.162,-0.1900634765625
99.172,-0.205078125
99.182,-0.194580078125
99.192,-0.1651611328125
99.202,-0.122802734375
99.212,-0.07891845703125
99.222,-0.041107177734375
99.232,-0.0059356689453125
99.242,0.027008056640625
99.252,0.04901123046875
99.262,0.0548095703125
99.272,0.043701171875
99.282,0.0157623291015625
99.292,-0.0175323486328125
99.302,-0.036834716796875
99.312,-0.03741455078125
99.321,-0.0296173095703125
99.331,-0.020843505859375
99.341,-0.0154647827148438
99.351,-0.0196380615234375
99.361,-0.030181884765625
99.371,-0.03607177734375
99.381,-0.0369873046875
99.391,-0.03887939453125
99.401,-0.040069580078125
99.411,-0.0426025390625
99.421,-0.056640625
99.431,-0.0772705078125
99.441,-0.08221435546875
99.451,-0.0635986328125
99.461,-0.03436279296875
99.471,-0.00375556945800781
99.481,0.022613525390625
99.491,0.029998779296875
99.501,0.009979248046875
99.511,-0.0248565673828125
99.519,-0.0577392578125
99.529,-0.0859375
99.539,-0.11431884765625
99.549,-0.140380859375
99.559,-0.1546630859375
99.569,-0.153076171875
99.579,-0.142578125
99.589,-0.1298828125
99.599,-0.1094970703125
99.609,-0.07635498046875
99.619,-0.0408935546875
99.629,-0.0147247314453125
99.639,0.00353813171386719
99.649,0.015380859375
99.659,0.0100860595703125
99.669,-0.019500732421875
99.679,-0.061920166015625
99.689,-0.09722900390625
99.699,-0.11492919921875
99.709,-0.12432861328125
99.713,-0.22998046875
99.723,-0.241455078125
99.733,-0.249755859375
99.743,-0.2342529296875
99.753,-0.1893310546875
99.763,-0.1356201171875
99.773,-0.10675048828125
99.783,-0.11627197265625
99.793,-0.142822265625
99.803,-0.1605224609375
99.813,-0.1678466796875
99.823,-0.17822265625
99.833,-0.1982421875
99.843,-0.219970703125
99.853,-0.22705078125
99.863,-0.208740234375
99.872,-0.1754150390625
99.882,-0.1519775390625
99.892,-0.156982421875
99.902,-0.1884765625
99.912,-0.226806640625
99.922,-0.2529296875
99.932,-0.265625
99.942,-0.277099609375
99.952,-0.296875
99.962,-0.318115234375
99.972,-0.31884765625
99.982,-0.277587890625
99.992,-0.19287109375
100.002,-0.0894775390625
100.012,-0.00727462768554688
100.022,0.0265960693359375
100.032,0.0152130126953125
100.042,-0.01251220703125
100.052,-0.0254669189453125
100.062,-0.01531982421875
100.071,-0.000975131988525391
100.081,-0.0145492553710938
100.091,-0.08013916015625
100.101,-0.195556640625
100.111,-0.331787109375
100.121,-0.4453125
100.131,-0.493896484375
100.141,-0.458251953125
100.151,-0.356689453125
100.161,-0.2335205078125
100.171,-0.134765625
100.181,-0.08941650390625
100.191,-0.095947265625
100.201,-0.1275634765625
100.211,-0.156005859375
100.221,-0.1719970703125
100.231,-0.181884765625
100.241,-0.199462890625
100.251,-0.2406005859375
100.261,-0.31103515625
100.269,-0.398193359375
100.279,-0.475341796875
100.289,-0.51171875
100.299,-0.489990234375
100.309,-0.4150390625
100.319,-0.30908203125
100.329,-0.2039794921875
100.339,-0.1336669921875
100.349,-0.1217041015625
100.359,-0.1708984375
100.369,-0.26171875
100.379,-0.35986328125
100.389,-0.427734375
100.399,-0.439453125
100.409,-0.3876953125
100.419,-0.2861328125
100.429,-0.1661376953125
100.439,-0.060577392578125
100.449,0.004608154296875
100.459,0.0108413696289062
100.463,-0.45166015625
100.473,-0.47412109375
100.483,-0.439453125
100.493,-0.35400390625
100.503,-0.239501953125
100.513,-0.122802734375
100.523,-0.027984619140625
100.533,0.02105712890625
100.543,0.0119247436523438
100.553,-0.0478515625
100.563,-0.1376953125
100.573,-0.22705078125
100.583,-0.2861328125
100.593,-0.304443359375
100.603,-0.29150390625
100.613,-0.2685546875
100.622,-0.265869140625
100.632,-0.306640625
100.642,-0.397216796875
100.652,-0.5244140625
100.662,-0.65673828125
100.672,-0.755859375
100.682,-0.80126953125
100.692,-0.7978515625
100.702,-0.7685546875
100.712,-0.73486328125
100.722,-0.70751953125
100.732,-0.69580078125
100.742,-0.70849609375
100.752,-0.7490234375
100.762,-0.8193359375
100.772,-0.91162109375
100.782,-1.0029296875
100.792,-1.078125
100.802,-1.1435546875
100.812,-1.2099609375
100.821,-1.2666015625
100.831,-1.2958984375
100.841,-1.296875
100.851,-1.2734375
100.861,-1.2275390625
100.871,-1.1708984375
100.881,-1.1279296875
100.891,-1.1123046875
100.901,-1.125
100.911,-1.1630859375
100.921,-1.2197265625
100.931,-1.287109375
100.941,-1.3544921875
100.951,-1.4091796875
100.961,-1.4365234375
100.971,-1.431640625
100.981,-1.3984375
100.991,-1.3447265625
101.001,-1.28125
101.011,-1.2236328125
101.019,-1.185546875
101.029,-1.1728515625
101.039,-1.1787109375
101.049,-1.1904296875
101.059,-1.1943359375
101.069,-1.1796875
101.079,-1.1435546875
101.089,-1.1005859375
101.099,-1.0654296875
101.109,-1.0478515625
101.119,-1.052734375
101.129,-1.0859375
101.139,-1.1435546875
101.149,-1.2119140625
101.159,-1.271484375
101.169,-1.306640625
101.179,-1.3125
101.189,-1.296875
101.199,-1.2626953125
101.209,-1.2099609375
101.213,-1.130859375
101.223,-1.1884765625
101.233,-1.23828125
101.243,-1.2685546875
101.253,-1.2802734375
101.263,-1.2783203125
101.273,-1.2724609375
101.283,-1.267578125
101.293,-1.26171875
101.303,-1.2470703125
101.313,-1.21875
101.323,-1.17578125
101.333,-1.1181640625
101.343,-1.0546875
101.353,-1.0009765625
101.363,-0.97021484375
101.372,-0.96875
101.382,-0.99658203125
101.392,-1.0419921875
101.402,-1.0830078125
101.412,-1.0986328125
101.422,-1.0849609375
101.432,-1.0478515625
101.442,-0.99755859375
101.452,-0.94189453125
101.462,-0.8916015625
101.472,-0.8544921875
101.482,-0.83447265625
101.492,-0.82861328125
101.502,-0.83251953125
101.512,-0.83984375
101.522,-0.84716796875
101.532,-0.8583984375
101.542,-0.88037109375
101.552,-0.91357421875
101.562,-0.95361328125
101.57,-1
101.58,-1.0537109375
101.59,-1.111328125
101.6,-1.1640625
101.61,-1.19921875
101.62,-1.2119140625
101.63,-1.2001953125
101.64,-1.1708984375
101.65,-1.1357421875
101.66,-1.09765625
101.67,-1.05078125
101.68,-1.0009765625
101.69,-0.9677734375
101.7,-0.9658203125
101.71,-0.99169921875
101.72,-1.03515625
101.73,-1.0830078125
101.74,-1.1181640625
101.75,-1.1318359375
101.76,-1.125
101.769,-1.1015625
101.779,-1.07421875
101.789,-1.0498046875
101.799,-1.02734375
101.809,-1.0185546875
101.819,-1.0283203125
101.829,-1.0380859375
101.839,-1.04296875
101.849,-1.05078125
101.859,-1.05078125
101.869,-1.0263671875
101.879,-0.9970703125
101.889,-0.98193359375
101.899,-0.97265625
101.909,-0.96240234375
101.919,-0.96435546875
101.929,-0.9794921875
101.939,-0.98974609375
101.949,-0.98583984375
101.959,-0.98095703125
101.963,-1.0126953125
101.973,-1.0224609375
101.983,-1.03125
101.993,-1.041015625
102.003,-1.0458984375
102.013,-1.0390625
102.023,-1.029296875
102.033,-1.0244140625
102.043,-1.01953125
102.053,-1.0078125
102.063,-0.9990234375
102.073,-1.005859375
102.083,-1.0205078125
102.093,-1.0205078125
102.103,-1.0087890625
102.113,-1.0068359375
102.122,-1.01171875
102.132,-0.99658203125
102.142,-0.94873046875
102.152,-0.8955078125
102.162,-0.8603515625
102.172,-0.833984375
102.182,-0.79931640625
102.192,-0.76708984375
102.202,-0.75634765625
102.212,-0.7607421875
102.222,-0.7568359375
102.232,-0.74658203125
102.242,-0.74755859375
102.252,-0.75146484375
102.262,-0.72998046875
102.272,-0.67333984375
102.282,-0.595703125
102.292,-0.50244140625
102.302,-0.394287109375
102.312,-0.2958984375
102.32,-0.246826171875
102.33,-0.254638671875
102.34,-0.2900390625
102.35,-0.329833984375
102.36,-0.3779296875
102.37,-0.432861328125
102.38,-0.472412109375
102.39,-0.48876953125
102.4,-0.50830078125
102.41,-0.55078125
102.42,-0.5908203125
102.43,-0.59765625
102.44,-0.58837890625
102.45,-0.60595703125
102.46,-0.65771484375
102.47,-0.720703125
102.48,-0.779296875
102.49,-0.833984375
102.5,-0.87158203125
102.51,-0.86767578125
102.519,-0.822265625
102.529,-0.76513671875
102.539,-0.720703125
102.549,-0.6875
102.559,-0.658203125
102.569,-0.6435546875
102.579,-0.6640625
102.589,-0.71826171875
102.599,-0.76611328125
102.609,-0.76025390625
102.619,-0.69970703125
102.629,-0.64697265625
102.639,-0.67138671875
102.649,-0.783203125
102.659,-0.91943359375
102.669,-0.9970703125
102.679,-0.98681640625
102.689,-0.931640625
102.699,-0.89599609375
102.709,-0.904296875
102.713,-0.48828125
102.723,-0.494873046875
102.733,-0.5966796875
102.743,-0.7265625
102.753,-0.80224609375
102.763,-0.7744140625
102.773,-0.65283203125
102.783,-0.4970703125
102.793,-0.384765625
102.803,-0.378662109375
102.813,-0.50244140625
102.823,-0.7294921875
102.833,-0.9853515625
102.843,-1.16796875
102.853,-1.1953125
102.863,-1.052734375
102.872,-0.8037109375
102.882,-0.56005859375
102.892,-0.426025390625
102.902,-0.441650390625
102.912,-0.56884765625
102.922,-0.73291015625
102.932,-0.8642578125
102.942,-0.9189453125
102.952,-0.88623046875
102.962,-0.79541015625
102.972,-0.7041015625
102.982,-0.66064453125
102.992,-0.66650390625
103.002,-0.6845703125
103.012,-0.67041015625
103.022,-0.60791015625
103.032,-0.52685546875
103.042,-0.4853515625
103.052,-0.53662109375
103.062,-0.69775390625
103.07,-0.93408203125
103.08,-1.16796875
103.09,-1.3046875
103.1,-1.28125
103.11,-1.080078125
103.12,-0.72998046875
103.13,-0.292724609375
103.14,0.1512451171875
103.15,0.51220703125
103.16,0.708984375
103.17,0.69482421875
103.18,0.470947265625
103.19,0.0794677734375
103.2,-0.416748046875
103.21,-0.95166015625
103.22,-1.4638671875
103.23,-1.8974609375
103.24,-2.20703125
103.25,-2.375
103.26,-2.408203125
103.269,-2.328125
103.279,-2.1640625
103.289,-1.9384765625
103.299,-1.666015625
103.309,-1.361328125
103.319,-1.0390625
103.329,-0.7060546875
103.339,-0.35791015625
103.349,0.00579071044921875
103.359,0.368408203125
103.369,0.6982421875
103.379,0.9638671875
103.389,1.140625
103.399,1.21875
103.409,1.2080078125
103.419,1.130859375
103.429,1.0029296875
103.439,0.83447265625
103.449,0.63720703125
103.459,0.42529296875
103.463,-0.7109375
103.473,-0.88671875
103.483,-0.9892578125
103.493,-1.01171875
103.503,-0.96435546875
103.513,-0.87060546875
103.523,-0.76220703125
103.533,-0.66943359375
103.543,-0.61083984375
103.553,-0.60693359375
103.563,-0.6806640625
103.573,-0.84326171875
103.583,-1.08984375
103.593,-1.404296875
103.603,-1.7451171875
103.613,-2.0703125
103.622,-2.349609375
103.632,-2.556640625
103.642,-2.673828125
103.652,-2.703125
103.662,-2.685546875
103.672,-2.66796875
103.682,-2.666015625
103.692,-2.671875
103.702,-2.662109375
103.712,-2.6171875
103.722,-2.529296875
103.732,-2.396484375
103.742,-2.220703125
103.752,-2.009765625
103.762,-1.7783203125
103.772,-1.5322265625
103.782,-1.2705078125
103.792,-0.9833984375
103.802,-0.66650390625
103.812,-0.3349609375
103.82,-0.026397705078125
103.83,0.2177734375
103.84,0.37939453125
103.85,0.466064453125
103.86,0.499267578125
103.87,0.5009765625
103.88,0.48681640625
103.89,0.458984375
103.9,0.408447265625
103.91,0.323974609375
103.92,0.2078857421875
103.93,0.08001708984375
103.94,-0.03790283203125
103.95,-0.1356201171875
103.96,-0.2156982421875
103.97,-0.2880859375
103.98,-0.361083984375
103.99,-0.4365234375
104,-0.51025390625
104.01,-0.58203125
104.019,-0.65771484375
104.029,-0.748046875
104.039,-0.8642578125
104.049,-1.013671875
104.059,-1.1962890625
104.069,-1.4052734375
104.079,-1.6318359375
104.089,-1.8662109375
104.099,-2.08984375
104.109,-2.283203125
104.119,-2.42578125
104.129,-2.51171875
104.139,-2.546875
104.149,-2.55078125
104.159,-2.537109375
104.169,-2.509765625
104.179,-2.46484375
104.189,-2.396484375
104.199,-2.30859375
104.209,-2.205078125
104.213,-1.662109375
104.223,-1.501953125
104.233,-1.3154296875
104.243,-1.1064453125
104.253,-0.880859375
104.263,-0.64208984375
104.273,-0.390869140625
104.283,-0.119384765625
104.293,0.18359375
104.303,0.517578125
104.313,0.8681640625
104.323,1.2080078125
104.333,1.5087890625
104.343,1.740234375
104.353,1.88671875
104.363,1.9404296875
104.372,1.8994140625
104.382,1.767578125
104.392,1.5478515625
104.402,1.25
104.412,0.8837890625
104.422,0.46044921875
104.432,-0.0041961669921875
104.442,-0.495361328125
104.452,-0.99755859375
104.462,-1.48828125
104.472,-1.9345703125
104.482,-2.29296875
104.492,-2.513671875
104.502,-2.55078125
104.512,-2.375
104.522,-1.9921875
104.532,-1.44140625
104.542,-0.79248046875
104.552,-0.1201171875
104.562,0.5048828125
104.57,1.013671875
104.58,1.341796875
104.59,1.4375
104.6,1.2890625
104.61,0.9326171875
104.62,0.443359375
104.63,-0.07696533203125
104.64,-0.521484375
104.65,-0.8056640625
104.66,-0.87841796875
104.67,-0.73388671875
104.68,-0.415283203125
104.69,-0.00820159912109375
104.7,0.376708984375
104.71,0.62841796875
104.72,0.66748046875
104.73,0.481689453125
104.74,0.1456298828125
104.75,-0.2083740234375
104.76,-0.4462890625
104.769,-0.4912109375
104.779,-0.359375
104.789,-0.1451416015625
104.799,0.035247802734375
104.809,0.099609375
104.819,0.0341796875
104.829,-0.10797119140625
104.839,-0.2398681640625
104.849,-0.288330078125
104.859,-0.236328125
104.869,-0.1328125
104.879,-0.05377197265625
104.889,-0.046661376953125
104.899,-0.09881591796875
104.909,-0.15625
104.919,-0.17236328125
104.929,-0.139404296875
104.939,-0.08447265625
104.949,-0.03857421875
104.959,-0.0125579833984375
104.963,-0.1092529296875
104.973,-0.1416015625
104.983,-0.1595458984375
104.993,-0.1787109375
105.003,-0.2069091796875
105.013,-0.2274169921875
105.023,-0.2177734375
105.033,-0.1820068359375
105.043,-0.1466064453125
105.053,-0.1259765625
105.063,-0.1036376953125
105.073,-0.058502197265625
105.083,0.000303983688354492
105.093,0.040985107421875
105.103,0.048828125
105.113,0.039459228515625
105.122,0.031646728515625
105.132,0.0245819091796875
105.142,0.007354736328125
105.152,-0.0215301513671875
105.162,-0.0540771484375
105.172,-0.08447265625
105.182,-0.111328125
105.192,-0.1312255859375
105.202,-0.1385498046875
105.212,-0.1322021484375
105.222,-0.11761474609375
105.232,-0.0994873046875
105.242,-0.0789794921875
105.252,-0.056427001953125
105.262,-0.0367431640625
105.272,-0.0253143310546875
105.282,-0.0188446044921875
105.292,-0.00887298583984375
105.302,0.00911712646484375
105.312,0.03839111328125
105.32,0.0833740234375
105.33,0.138671875
105.34,0.1854248046875
105.35,0.20703125
105.36,0.201416015625
105.37,0.174072265625
105.38,0.127685546875
105.39,0.062103271484375
105.4,-0.01739501953125
105.41,-0.09246826171875
105.42,-0.1392822265625
105.43,-0.1444091796875
105.44,-0.10882568359375
105.45,-0.042144775390625
105.46,0.0416259765625
105.47,0.1256103515625
105.48,0.1907958984375
105.49,0.220703125
105.5,0.206298828125
105.51,0.1488037109375
105.519,0.061492919921875
105.529,-0.033538818359375
105.539,-0.11419677734375
105.549,-0.162841796875
105.559,-0.16552734375
105.569,-0.118896484375
105.579,-0.03802490234375
105.589,0.050872802734375
105.599,0.1259765625
105.609,0.173828125
105.619,0.1842041015625
105.629,0.154296875
105.639,0.091552734375
105.649,0.00646209716796875
105.659,-0.0858154296875
105.669,-0.1640625
105.679,-0.214599609375
105.689,-0.229736328125
105.699,-0.2022705078125
105.709,-0.13818359375
105.713,0.175537109375
105.723,0.147216796875
105.733,0.0914306640625
105.743,0.0294342041015625
105.753,-0.021514892578125
105.763,-0.0572509765625
105.773,-0.0760498046875
105.783,-0.07623291015625
105.793,-0.06060791015625
105.803,-0.035888671875
105.813,-0.0111083984375
105.823,0.00868988037109375
105.833,0.0231475830078125
105.843,0.0282135009765625
105.853,0.0194549560546875
105.863,0.000168085098266602
105.872,-0.0204925537109375
105.882,-0.03289794921875
105.892,-0.0306854248046875
105.902,-0.0119476318359375
105.912,0.021148681640625
105.922,0.062744140625
105.932,0.100341796875
105.942,0.1182861328125
105.952,0.11529541015625
105.962,0.1046142578125
105.972,0.094970703125
105.982,0.08319091796875
105.992,0.06573486328125
106.002,0.045166015625
106.012,0.027374267578125
106.022,0.0214691162109375
106.032,0.035797119140625
106.042,0.06671142578125
106.052,0.09722900390625
106.062,0.10931396484375
106.07,0.09710693359375
106.08,0.066650390625
106.09,0.0272979736328125
106.1,-0.0140380859375
106.11,-0.0484619140625
106.12,-0.06109619140625
106.13,-0.04107666015625
106.14,0.00522994995117188
106.15,0.060272216796875
106.16,0.1107177734375
106.17,0.1488037109375
106.18,0.167236328125
106.19,0.1630859375
106.2,0.1424560546875
106.21,0.1170654296875
106.22,0.0950927734375
106.23,0.07940673828125
106.24,0.073974609375
106.25,0.0838623046875
106.26,0.107666015625
106.269,0.13720703125
106.279,0.164306640625
106.289,0.1826171875
106.299,0.183349609375
106.309,0.1585693359375
106.319,0.1131591796875
106.329,0.061614990234375
106.339,0.0130996704101562
106.349,-0.028839111328125
106.359,-0.057403564453125
106.369,-0.0650634765625
106.379,-0.053070068359375
106.389,-0.0296478271484375
106.399,-0.00246047973632812
106.409,0.0195770263671875
106.419,0.027740478515625
106.429,0.02288818359375
106.439,0.0141067504882812
106.449,0.00849151611328125
106.459,0.0107879638671875
106.463,0.06298828125
106.473,0.052459716796875
106.483,0.0294342041015625
106.493,-0.0112228393554688
106.503,-0.0687255859375
106.513,-0.13427734375
106.523,-0.193115234375
106.533,-0.22900390625
106.543,-0.23388671875
106.553,-0.213134765625
106.563,-0.1748046875
106.573,-0.1221923828125
106.583,-0.059112548828125
106.593,0.00601959228515625
106.603,0.06402587890625
106.613,0.1083984375
106.621,0.131103515625
106.631,0.1256103515625
106.641,0.0906982421875
106.651,0.0211181640625
106.661,-0.0859375
106.671,-0.20947265625
106.681,-0.31005859375
106.691,-0.3515625
106.701,-0.316650390625
106.711,-0.212158203125
106.721,-0.06573486328125
106.731,0.0792236328125
106.741,0.17578125
106.751,0.1956787109375
106.761,0.1395263671875
106.771,0.0306854248046875
106.781,-0.09136962890625
106.791,-0.1856689453125
106.801,-0.2333984375
106.811,-0.2396240234375
106.82,-0.2197265625
106.83,-0.192626953125
106.84,-0.1749267578125
106.85,-0.169189453125
106.86,-0.166259765625
106.87,-0.1575927734375
106.88,-0.1358642578125
106.89,-0.09942626953125
106.9,-0.058502197265625
106.91,-0.0215606689453125
106.92,0.0150680541992188
106.93,0.049285888671875
106.94,0.0672607421875
106.95,0.06201171875
106.96,0.035247802734375
106.97,-0.0111541748046875
106.98,-0.06927490234375
106.99,-0.1236572265625
107,-0.16796875
107.01,-0.210205078125
107.019,-0.251953125
107.029,-0.27734375
107.039,-0.27490234375
107.049,-0.2498779296875
107.059,-0.21044921875
107.069,-0.16357421875
107.079,-0.1279296875
107.089,-0.12030029296875
107.099,-0.12939453125
107.109,-0.12939453125
107.119,-0.10906982421875
107.129,-0.07177734375
107.139,-0.0181884765625
107.149,0.04632568359375
107.159,0.09356689453125
107.169,0.08831787109375
107.179,0.0230712890625
107.189,-0.07745361328125
107.199,-0.1820068359375
107.209,-0.26953125
107.213,-0.288818359375
107.223,-0.288818359375
107.233,-0.285400390625
107.243,-0.26513671875
107.253,-0.2242431640625
107.263,-0.1671142578125
107.273,-0.09967041015625
107.283,-0.03564453125
107.293,0.00301551818847656
107.303,0.00255012512207031
107.313,-0.033447265625
107.323,-0.0919189453125
107.333,-0.1593017578125
107.343,-0.2227783203125
107.353,-0.274169921875
107.363,-0.32080078125
107.371,-0.383056640625
107.381,-0.476806640625
107.391,-0.599609375
107.401,-0.73095703125
107.411,-0.85107421875
107.421,-0.9501953125
107.431,-1.0146484375
107.441,-1.03125
107.451,-1.0048828125
107.461,-0.943359375
107.471,-0.84912109375
107.481,-0.728515625
107.491,-0.5986328125
107.501,-0.47314453125
107.511,-0.355224609375
107.521,-0.2398681640625
107.531,-0.1295166015625
107.541,-0.038421630859375
107.551,0.017791748046875
107.561,0.033355712890625
107.57,0.0111770629882812
107.58,-0.04486083984375
107.59,-0.13134765625
107.6,-0.2386474609375
107.61,-0.345703125
107.62,-0.431396484375
107.63,-0.4873046875
107.64,-0.52197265625
107.65,-0.54736328125
107.66,-0.57666015625
107.67,-0.62744140625
107.68,-0.70654296875
107.69,-0.802734375
107.7,-0.89404296875
107.71,-0.96875
107.72,-1.025390625
107.73,-1.068359375
107.74,-1.09765625
107.75,-1.1103515625
107.76,-1.095703125
107.769,-1.0517578125
107.779,-0.99560546875
107.789,-0.947265625
107.799,-0.9267578125
107.809,-0.94140625
107.819,-0.9814453125
107.829,-1.0302734375
107.839,-1.0712890625
107.849,-1.0859375
107.859,-1.0634765625
107.869,-1.0009765625
107.879,-0.9072265625
107.889,-0.80322265625
107.899,-0.7099609375
107.909,-0.64306640625
107.919,-0.60986328125
107.929,-0.609375
107.939,-0.6376953125
107.949,-0.6875
107.959,-0.74609375
107.963,-0.83544921875
107.973,-0.82080078125
107.983,-0.82373046875
107.993,-0.85009765625
108.003,-0.8955078125
108.013,-0.9541015625
108.023,-1.0126953125
108.033,-1.052734375
108.043,-1.0576171875
108.053,-1.02734375
108.063,-0.974609375
108.073,-0.92578125
108.083,-0.904296875
108.093,-0.92236328125
108.103,-0.9755859375
108.113,-1.037109375
108.121,-1.0732421875
108.131,-1.0595703125
108.141,-0.9921875
108.151,-0.87353515625
108.161,-0.724609375
108.171,-0.57080078125
108.181,-0.4306640625
108.191,-0.315673828125
108.201,-0.2373046875
108.211,-0.202880859375
108.221,-0.2100830078125
108.231,-0.2479248046875
108.241,-0.308837890625
108.251,-0.389404296875
108.261,-0.478515625
108.271,-0.55810546875
108.281,-0.619140625
108.291,-0.66259765625
108.301,-0.69091796875
108.311,-0.7119140625
108.32,-0.73291015625
108.33,-0.755859375
108.34,-0.77978515625
108.35,-0.81005859375
108.36,-0.85791015625
108.37,-0.9267578125
108.38,-1.0087890625
108.39,-1.08984375
108.4,-1.1533203125
108.41,-1.18359375
108.42,-1.1640625
108.43,-1.0888671875
108.44,-0.97021484375
108.45,-0.82958984375
108.46,-0.6982421875
108.47,-0.60400390625
108.48,-0.564453125
108.49,-0.5810546875
108.5,-0.64208984375
108.51,-0.724609375
108.519,-0.802734375
108.529,-0.84912109375
108.539,-0.84814453125
108.549,-0.80029296875
108.559,-0.72216796875
108.569,-0.63818359375
108.579,-0.5673828125
108.589,-0.51953125
108.599,-0.49755859375
108.609,-0.50146484375
108.619,-0.5263671875
108.629,-0.56494140625
108.639,-0.61181640625
108.649,-0.66455078125
108.659,-0.71533203125
108.669,-0.7470703125
108.679,-0.7451171875
108.689,-0.71044921875
108.699,-0.65234375
108.709,-0.57861328125
108.713,-0.349365234375
108.723,-0.36279296875
108.733,-0.377685546875
108.743,-0.380859375
108.753,-0.369384765625
108.763,-0.35302734375
108.773,-0.34716796875
108.783,-0.364501953125
108.793,-0.412353515625
108.803,-0.488525390625
108.813,-0.5859375
108.823,-0.69384765625
108.833,-0.7890625
108.843,-0.84716796875
108.853,-0.85205078125
108.863,-0.8017578125
108.871,-0.70703125
108.881,-0.5869140625
108.891,-0.458984375
108.901,-0.3408203125
108.911,-0.25244140625
108.921,-0.1983642578125
108.931,-0.167236328125
108.941,-0.1563720703125
108.951,-0.161376953125
108.961,-0.1734619140625
108.971,-0.199462890625
108.981,-0.2490234375
108.991,-0.307861328125
109.001,-0.351806640625
109.011,-0.361572265625
109.021,-0.32373046875
109.031,-0.2459716796875
109.041,-0.1552734375
109.051,-0.0753173828125
109.061,-0.0187530517578125
109.07,0.00771331787109375
109.08,0.00855255126953125
109.09,-0.00172901153564453
109.1,-0.0139923095703125
109.11,-0.02947998046875
109.12,-0.04864501953125
109.13,-0.064453125
109.14,-0.0687255859375
109.15,-0.059722900390625
109.16,-0.039886474609375
109.17,-0.0127944946289062
109.18,0.0142364501953125
109.19,0.032379150390625
109.2,0.037200927734375
109.21,0.027862548828125
109.22,0.0078582763671875
109.23,-0.011993408203125
109.24,-0.0224151611328125
109.25,-0.026580810546875
109.26,-0.03350830078125
109.269,-0.046142578125
109.279,-0.061492919921875
109.289,-0.07391357421875
109.299,-0.07635498046875
109.309,-0.06756591796875
109.319,-0.056915283203125
109.329,-0.053802490234375
109.339,-0.057403564453125
109.349,-0.058074951171875
109.359,-0.04656982421875
109.369,-0.0242462158203125
109.379,-0.00242424011230469
109.389,0.009521484375
109.399,0.00745773315429688
109.409,-0.0134048461914062
109.419,-0.05340576171875
109.429,-0.10040283203125
109.439,-0.135498046875
109.449,-0.144287109375
109.459,-0.125732421875
109.463,0.199462890625
109.473,0.24267578125
109.483,0.2388916015625
109.493,0.1883544921875
109.503,0.10107421875
109.513,-0.00546646118164062
109.523,-0.11480712890625
109.533,-0.2164306640625
109.543,-0.297119140625
109.553,-0.34130859375
109.563,-0.341796875
109.573,-0.30419921875
109.583,-0.241943359375
109.593,-0.1697998046875
109.603,-0.09942626953125
109.613,-0.0379638671875
109.621,0.00750350952148438
109.631,0.026885986328125
109.641,0.016021728515625
109.651,-0.0114974975585938
109.661,-0.02734375
109.671,-0.0068359375
109.681,0.051239013671875
109.691,0.12451171875
109.701,0.1895751953125
109.711,0.238525390625
109.721,0.270751953125
109.731,0.2841796875
109.741,0.2724609375
109.751,0.226318359375
109.761,0.13720703125
109.771,0.00986480712890625
109.781,-0.138427734375
109.791,-0.28369140625
109.801,-0.40087890625
109.811,-0.469970703125
109.82,-0.476318359375
109.83,-0.413818359375
109.84,-0.288330078125
109.85,-0.1253662109375
109.86,0.03338623046875
109.87,0.1551513671875
109.88,0.2296142578125
109.89,0.255859375
109.9,0.23583984375
109.91,0.180419921875
109.92,0.1048583984375
109.93,0.0269317626953125
109.94,-0.0303802490234375
109.95,-0.04681396484375
109.96,-0.0173187255859375
109.97,0.040985107421875
109.98,0.098876953125
109.99,0.1376953125
110,0.1539306640625
110.01,0.1461181640625
110.019,0.11346435546875
110.029,0.060699462890625
110.039,-0.0104827880859375
110.049,-0.09991455078125
110.059,-0.1944580078125
110.069,-0.273193359375
110.079,-0.322509765625
110.089,-0.332763671875
110.099,-0.29736328125
110.109,-0.2269287109375
110.119,-0.143310546875
110.129,-0.0648193359375
110.139,-0.00720977783203125
110.149,0.0205078125
110.159,0.023681640625
110.169,0.0143966674804688
110.179,-0.00390052795410156
110.189,-0.034942626953125
110.199,-0.081787109375
110.209,-0.1513671875
110.213,-0.44287109375
110.223,-0.376953125
110.233,-0.27685546875
110.243,-0.1522216796875
110.253,-0.0171661376953125
110.263,0.100341796875
110.273,0.164794921875
110.283,0.1549072265625
110.293,0.072998046875
110.303,-0.06231689453125
110.313,-0.2186279296875
110.323,-0.3525390625
110.333,-0.4208984375
110.343,-0.394775390625
110.353,-0.279052734375
110.363,-0.11090087890625
110.371,0.0670166015625
110.381,0.2222900390625
110.391,0.33203125
110.401,0.3837890625
110.411,0.370849609375
110.421,0.291015625
110.431,0.156005859375
110.441,-0.00637435913085938
110.451,-0.1651611328125
110.461,-0.290771484375
110.471,-0.351806640625
110.481,-0.329345703125
110.491,-0.2388916015625
110.501,-0.117919921875
110.511,-0.0023040771484375
110.521,0.08465576171875
110.531,0.1322021484375
110.541,0.1422119140625
110.551,0.1197509765625
110.561,0.06890869140625
110.57,0.000184059143066406
110.58,-0.07122802734375
110.59,-0.13623046875
110.6,-0.19091796875
110.61,-0.22509765625
110.62,-0.219482421875
110.63,-0.16064453125
110.64,-0.0570068359375
110.65,0.0633544921875
110.66,0.1649169921875
110.67,0.2147216796875
110.68,0.1942138671875
110.69,0.114501953125
110.7,0.0110092163085938
110.71,-0.09130859375
110.72,-0.19140625
110.73,-0.28369140625
110.74,-0.34619140625
110.75,-0.3642578125
110.76,-0.3466796875
110.765,0.0220184326171875
110.775,0.07373046875
110.785,0.094482421875
110.795,0.08197021484375
110.805,0.03173828125
110.815,-0.046783447265625
110.825,-0.12115478515625
110.835,-0.1546630859375
110.845,-0.1356201171875
110.855,-0.08746337890625
110.865,-0.046905517578125
110.875,-0.034576416015625
110.885,-0.052276611328125
110.895,-0.0980224609375
110.905,-0.16845703125
110.915,-0.2479248046875
110.922,-0.303955078125
110.932,-0.306884765625
110.942,-0.26171875
110.952,-0.2021484375
110.962,-0.15625
110.972,-0.1258544921875
110.982,-0.10064697265625
110.992,-0.0784912109375
111.002,-0.069580078125
111.012,-0.07696533203125
111.022,-0.08294677734375
111.032,-0.0626220703125
111.042,-0.0127487182617188
111.052,0.03851318359375
111.062,0.0540771484375
111.072,0.01861572265625
111.082,-0.050933837890625
111.092,-0.12322998046875
111.102,-0.17822265625
111.112,-0.215576171875
111.121,-0.243896484375
111.131,-0.267822265625
111.141,-0.28271484375
111.151,-0.281005859375
111.161,-0.259765625
111.171,-0.227294921875
111.181,-0.1995849609375
111.191,-0.1864013671875
111.201,-0.18359375
111.211,-0.1826171875
111.221,-0.1778564453125
111.231,-0.1715087890625
111.241,-0.1773681640625
111.251,-0.209228515625
111.261,-0.264892578125
111.271,-0.32470703125
111.281,-0.36328125
111.291,-0.360107421875
111.301,-0.3095703125
111.311,-0.2333984375
111.32,-0.1693115234375
111.33,-0.1475830078125
111.34,-0.1746826171875
111.35,-0.22802734375
111.36,-0.26953125
111.37,-0.27197265625
111.38,-0.23291015625
111.39,-0.1705322265625
111.4,-0.1187744140625
111.41,-0.10992431640625
111.42,-0.152099609375
111.43,-0.2269287109375
111.44,-0.304931640625
111.45,-0.361328125
111.46,-0.384033203125
111.47,-0.376708984375
111.48,-0.352294921875
111.49,-0.322998046875
111.5,-0.29736328125
111.51,-0.275634765625
111.514,-0.1236572265625
111.524,-0.10516357421875
111.534,-0.10711669921875
111.544,-0.128662109375
111.554,-0.162109375
111.564,-0.1964111328125
111.574,-0.224365234375
111.584,-0.24072265625
111.594,-0.241455078125
111.604,-0.22900390625
111.614,-0.2105712890625
111.624,-0.1903076171875
111.634,-0.1680908203125
111.644,-0.1414794921875
111.654,-0.106201171875
111.664,-0.06451416015625
111.672,-0.0296173095703125
111.682,-0.0159912109375
111.692,-0.03619384765625
111.702,-0.09600830078125
111.712,-0.1834716796875
111.722,-0.273193359375
111.732,-0.340576171875
111.742,-0.369140625
111.752,-0.357666015625
111.762,-0.32275390625
111.772,-0.289306640625
111.782,-0.274169921875
111.792,-0.281494140625
111.802,-0.304443359375
111.812,-0.32568359375
111.822,-0.328857421875
111.832,-0.304931640625
111.842,-0.250244140625
111.852,-0.172607421875
111.862,-0.0965576171875
111.871,-0.054656982421875
111.881,-0.07159423828125
111.891,-0.1458740234375
111.901,-0.249755859375
111.911,-0.351806640625
111.921,-0.4296875
111.931,-0.466796875
111.941,-0.462158203125
111.951,-0.4345703125
111.961,-0.404052734375
111.971,-0.38671875
111.981,-0.40234375
111.991,-0.46533203125
112.001,-0.578125
112.011,-0.73046875
112.021,-0.8955078125
112.031,-1.046875
112.041,-1.171875
112.051,-1.2587890625
112.061,-1.2900390625
112.07,-1.267578125
112.08,-1.2099609375
112.09,-1.140625
112.1,-1.080078125
112.11,-1.04296875
112.12,-1.041015625
112.13,-1.0654296875
112.14,-1.0830078125
112.15,-1.0615234375
112.16,-0.99267578125
112.17,-0.89501953125
112.18,-0.79443359375
112.19,-0.70068359375
112.2,-0.60302734375
112.21,-0.48046875
112.22,-0.33837890625
112.23,-0.22216796875
112.24,-0.1748046875
112.25,-0.19873046875
112.26,-0.267578125
112.265,-0.94140625
112.275,-1.0888671875
112.285,-1.189453125
112.295,-1.248046875
112.305,-1.2734375
112.315,-1.2724609375
112.325,-1.26953125
112.335,-1.2919921875
112.345,-1.337890625
112.355,-1.353515625
112.365,-1.25
112.375,-0.982421875
112.385,-0.59326171875
112.395,-0.17529296875
112.405,0.2021484375
112.415,0.5224609375
112.422,0.798828125
112.432,1.0166015625
112.442,1.119140625
112.452,1.0498046875
112.462,0.80419921875
112.472,0.434326171875
112.482,0.0206451416015625
112.492,-0.367919921875
112.502,-0.69140625
112.512,-0.93212890625
112.522,-1.0830078125
112.532,-1.1513671875
112.542,-1.1572265625
112.552,-1.12890625
112.562,-1.0810546875
112.572,-1.0185546875
112.582,-0.94384765625
112.592,-0.859375
112.602,-0.77392578125
112.612,-0.70458984375
112.621,-0.66357421875
112.631,-0.65625
112.641,-0.681640625
112.651,-0.73388671875
112.661,-0.798828125
112.671,-0.8623046875
112.681,-0.9150390625
112.691,-0.94873046875
112.701,-0.955078125
112.711,-0.9375
112.721,-0.91552734375
112.731,-0.9130859375
112.741,-0.943359375
112.751,-1.0048828125
112.761,-1.0791015625
112.771,-1.134765625
112.781,-1.1435546875
112.791,-1.0927734375
112.801,-0.99169921875
112.811,-0.86279296875
112.82,-0.734375
112.83,-0.63525390625
112.84,-0.58154296875
112.85,-0.5771484375
112.86,-0.61328125
112.87,-0.6796875
112.88,-0.76513671875
112.89,-0.857421875
112.9,-0.9453125
112.91,-1.01953125
112.92,-1.0712890625
112.93,-1.1025390625
112.94,-1.1181640625
112.95,-1.1201171875
112.96,-1.1064453125
112.97,-1.0751953125
112.98,-1.0263671875
112.99,-0.96533203125
113,-0.89794921875
113.01,-0.8369140625
113.015,-0.85986328125
113.025,-0.88916015625
113.035,-0.900390625
113.045,-0.89111328125
113.055,-0.87060546875
113.065,-0.85498046875
113.075,-0.85498046875
113.085,-0.869140625
113.095,-0.88623046875
113.105,-0.89794921875
113.115,-0.90576171875
113.125,-0.9169921875
113.135,-0.9345703125
113.145,-0.95556640625
113.155,-0.970703125
113.165,-0.9697265625
113.172,-0.94775390625
113.182,-0.91064453125
113.192,-0.875
113.202,-0.85986328125
113.212,-0.8701171875
113.222,-0.90087890625
113.232,-0.9453125
113.242,-0.9931640625
113.252,-1.03125
113.262,-1.052734375
113.272,-1.0576171875
113.282,-1.0458984375
113.292,-1.017578125
113.302,-0.9794921875
113.312,-0.94091796875
113.322,-0.9091796875
113.332,-0.888671875
113.342,-0.88037109375
113.352,-0.88623046875
113.362,-0.90673828125
113.371,-0.9345703125
113.381,-0.95849609375
113.391,-0.96923828125
113.401,-0.9599609375
113.411,-0.927734375
113.421,-0.880859375
113.431,-0.83154296875
113.441,-0.78955078125
113.451,-0.76025390625
113.461,-0.74072265625
113.471,-0.72900390625
113.481,-0.72705078125
113.491,-0.73681640625
113.501,-0.7607421875
113.511,-0.79541015625
113.521,-0.8310546875
113.531,-0.86328125
113.541,-0.8896484375
113.551,-0.90576171875
113.561,-0.9033203125
113.57,-0.8916015625
113.58,-0.88671875
113.59,-0.892578125
113.6,-0.90087890625
113.61,-0.9072265625
113.62,-0.91552734375
113.63,-0.92529296875
113.64,-0.92919921875
113.65,-0.92431640625
113.66,-0.91455078125
113.67,-0.90087890625
113.68,-0.87548828125
113.69,-0.8330078125
113.7,-0.7802734375
113.71,-0.7353515625
113.72,-0.708984375
113.73,-0.697265625
113.74,-0.69091796875
113.75,-0.6904296875
113.76,-0.7041015625
113.765,-0.75927734375
113.775,-0.74365234375
113.785,-0.75927734375
113.795,-0.7939453125
113.805,-0.8212890625
113.815,-0.826171875
113.825,-0.81689453125
113.835,-0.81640625
113.845,-0.83935546875
113.855,-0.8759765625
113.865,-0.8984375
113.875,-0.87890625
113.885,-0.8125
113.895,-0.7177734375
113.905,-0.6279296875
113.915,-0.576171875
113.922,-0.5888671875
113.932,-0.67626953125
113.942,-0.82275390625
113.952,-0.98095703125
113.962,-1.0849609375
113.972,-1.0859375
113.982,-0.96826171875
113.992,-0.7568359375
114.002,-0.51025390625
114.012,-0.303955078125
114.022,-0.1962890625
114.032,-0.214599609375
114.042,-0.354248046875
114.052,-0.5859375
114.062,-0.86572265625
114.072,-1.1376953125
114.082,-1.3466796875
114.092,-1.4501953125
114.102,-1.4228515625
114.112,-1.265625
114.121,-1.0078125
114.131,-0.70263671875
114.141,-0.41064453125
114.151,-0.1846923828125
114.161,-0.06024169921875
114.171,-0.049896240234375
114.181,-0.1478271484375
114.191,-0.334228515625
114.201,-0.57958984375
114.211,-0.841796875
114.221,-1.06640625
114.231,-1.203125
114.241,-1.220703125
114.251,-1.1123046875
114.261,-0.8994140625
114.271,-0.6171875
114.281,-0.30126953125
114.291,0.0142135620117188
114.301,0.29833984375
114.311,0.521484375
114.32,0.65625
114.33,0.68603515625
114.34,0.60986328125
114.35,0.43115234375
114.36,0.1546630859375
114.37,-0.2083740234375
114.38,-0.63623046875
114.39,-1.095703125
114.4,-1.544921875
114.41,-1.935546875
114.42,-2.2265625
114.43,-2.40234375
114.44,-2.4765625
114.45,-2.478515625
114.46,-2.431640625
114.47,-2.34765625
114.48,-2.244140625
114.49,-2.14453125
114.5,-2.0625
114.51,-1.9912109375
114.515,-1.080078125
114.525,-0.720703125
114.535,-0.319091796875
114.545,0.1265869140625
114.555,0.595703125
114.565,1.0400390625
114.575,1.3798828125
114.585,1.5224609375
114.595,1.421875
114.605,1.099609375
114.615,0.6181640625
114.625,0.05389404296875
114.635,-0.5009765625
114.645,-0.94580078125
114.655,-1.197265625
114.665,-1.2119140625
114.672,-0.98193359375
114.682,-0.54541015625
114.692,0.0184326171875
114.702,0.61572265625
114.712,1.1630859375
114.722,1.583984375
114.732,1.80859375
114.742,1.7919921875
114.752,1.5302734375
114.762,1.0595703125
114.772,0.4599609375
114.782,-0.1544189453125
114.792,-0.65966796875
114.802,-0.95068359375
114.812,-0.97412109375
114.822,-0.7587890625
114.832,-0.414794921875
114.842,-0.08856201171875
114.852,0.0943603515625
114.862,0.07208251953125
114.871,-0.13623046875
114.881,-0.443603515625
114.891,-0.72900390625
114.901,-0.88330078125
114.911,-0.845703125
114.921,-0.61865234375
114.931,-0.264892578125
114.941,0.11724853515625
114.951,0.432373046875
114.961,0.61474609375
114.971,0.630859375
114.981,0.47705078125
114.991,0.190185546875
115.001,-0.1373291015625
115.011,-0.3896484375
115.021,-0.489013671875
115.031,-0.43359375
115.041,-0.28515625
115.051,-0.133056640625
115.061,-0.056854248046875
115.069,-0.10711669921875
115.079,-0.285400390625
115.089,-0.53857421875
115.099,-0.78515625
115.109,-0.94580078125
115.119,-0.9658203125
115.129,-0.83447265625
115.139,-0.59619140625
115.149,-0.3271484375
115.159,-0.10064697265625
115.169,0.025665283203125
115.179,0.0216827392578125
115.189,-0.0931396484375
115.199,-0.246826171875
115.209,-0.350341796875
115.219,-0.33984375
115.229,-0.192138671875
115.239,0.07183837890625
115.249,0.387939453125
115.259,0.65576171875
115.263,-0.56787109375
115.273,-0.75830078125
115.283,-0.69140625
115.293,-0.39892578125
115.303,0.0247039794921875
115.313,0.443115234375
115.323,0.7021484375
115.333,0.68359375
115.343,0.373046875
115.353,-0.11541748046875
115.363,-0.59423828125
115.373,-0.888671875
115.383,-0.9091796875
115.393,-0.6796875
115.403,-0.317138671875
115.413,0.0288238525390625
115.422,0.232666015625
115.432,0.2431640625
115.442,0.10809326171875
115.452,-0.053497314453125
115.462,-0.12322998046875
115.472,-0.04632568359375
115.482,0.144287109375
115.492,0.343017578125
115.502,0.427734375
115.512,0.3359375
115.522,0.10589599609375
115.532,-0.147216796875
115.542,-0.295654296875
115.552,-0.2626953125
115.562,-0.06512451171875
115.572,0.188232421875
115.582,0.35791015625
115.592,0.36669921875
115.602,0.241943359375
115.612,0.07684326171875
115.621,-0.04150390625
115.631,-0.07513427734375
115.641,-0.046478271484375
115.651,-0.025482177734375
115.661,-0.0733642578125
115.671,-0.179931640625
115.681,-0.275146484375
115.691,-0.2958984375
115.701,-0.236572265625
115.711,-0.1474609375
115.721,-0.09228515625
115.731,-0.0911865234375
115.741,-0.11175537109375
115.751,-0.10711669921875
115.761,-0.055908203125
115.771,0.01580810546875
115.781,0.0452880859375
115.791,-0.0109634399414062
115.801,-0.1309814453125
115.811,-0.23974609375
115.819,-0.26611328125
115.829,-0.2044677734375
115.839,-0.12060546875
115.849,-0.0850830078125
115.859,-0.10931396484375
115.869,-0.1514892578125
115.879,-0.167724609375
115.889,-0.1507568359375
115.899,-0.128173828125
115.909,-0.1260986328125
115.919,-0.13916015625
115.929,-0.143798828125
115.939,-0.1326904296875
115.949,-0.1251220703125
115.959,-0.13720703125
115.969,-0.14990234375
115.979,-0.123291015625
115.989,-0.0478515625
115.999,0.027618408203125
116.009,0.039825439453125
116.013,-0.1221923828125
116.023,-0.1593017578125
116.033,-0.174072265625
116.043,-0.1396484375
116.053,-0.08282470703125
116.063,-0.044219970703125
116.073,-0.0246429443359375
116.083,0.00551223754882812
116.093,0.050537109375
116.103,0.07568359375
116.113,0.055419921875
116.123,0.00766754150390625
116.133,-0.03692626953125
116.143,-0.07684326171875
116.153,-0.12274169921875
116.163,-0.1610107421875
116.172,-0.1688232421875
116.182,-0.151611328125
116.192,-0.1328125
116.202,-0.11663818359375
116.212,-0.0911865234375
116.222,-0.058349609375
116.232,-0.028289794921875
116.242,6.78896903991699e-05
116.252,0.0283050537109375
116.262,0.041534423828125
116.272,0.0254364013671875
116.282,-0.013519287109375
116.292,-0.055908203125
116.302,-0.08685302734375
116.312,-0.10198974609375
116.322,-0.10455322265625
116.332,-0.10247802734375
116.342,-0.1011962890625
116.352,-0.096435546875
116.362,-0.0814208984375
116.371,-0.055145263671875
116.381,-0.017852783203125
116.391,0.0271148681640625
116.401,0.06732177734375
116.411,0.09539794921875
116.421,0.11224365234375
116.431,0.115478515625
116.441,0.1055908203125
116.451,0.08984375
116.461,0.07177734375
116.471,0.055389404296875
116.481,0.046478271484375
116.491,0.044464111328125
116.501,0.0455322265625
116.511,0.046295166015625
116.521,0.039520263671875
116.531,0.0177001953125
116.541,-0.0184783935546875
116.551,-0.0562744140625
116.561,-0.0804443359375
116.569,-0.0897216796875
116.579,-0.091796875
116.589,-0.08868408203125
116.599,-0.07684326171875
116.609,-0.05328369140625
116.619,-0.0199127197265625
116.629,0.0172882080078125
116.639,0.0528564453125
116.649,0.080810546875
116.659,0.09527587890625
116.669,0.09820556640625
116.679,0.09832763671875
116.689,0.1019287109375
116.699,0.10894775390625
116.709,0.11474609375
116.719,0.1112060546875
116.729,0.08709716796875
116.739,0.03338623046875
116.749,-0.0455322265625
116.759,-0.1280517578125
116.763,-0.104736328125
116.773,-0.0232086181640625
116.783,0.0509033203125
116.793,0.08526611328125
116.803,0.06396484375
116.813,-0.000795841217041016
116.823,-0.08526611328125
116.833,-0.170654296875
116.843,-0.2392578125
116.853,-0.272705078125
116.863,-0.263671875
116.873,-0.22216796875
116.883,-0.171142578125
116.893,-0.1414794921875
116.903,-0.159912109375
116.913,-0.234619140625
116.922,-0.357421875
116.932,-0.50732421875
116.942,-0.654296875
116.952,-0.7822265625
116.962,-0.884765625
116.972,-0.95556640625
116.982,-1.001953125
116.992,-1.033203125
117.002,-1.046875
117.012,-1.037109375
117.022,-1.005859375
117.032,-0.95849609375
117.042,-0.91357421875
117.052,-0.88525390625
117.062,-0.87841796875
117.072,-0.90283203125
117.082,-0.95361328125
117.092,-1.001953125
117.102,-1.033203125
117.112,-1.046875
117.121,-1.03125
117.131,-0.98583984375
117.141,-0.939453125
117.151,-0.91162109375
117.161,-0.89404296875
117.171,-0.88623046875
117.181,-0.89990234375
117.191,-0.92529296875
117.201,-0.92822265625
117.211,-0.90087890625
117.221,-0.87548828125
117.231,-0.88232421875
117.241,-0.90478515625
117.251,-0.89453125
117.261,-0.8408203125
117.271,-0.794921875
117.281,-0.8203125
117.291,-0.91943359375
117.301,-1.021484375
117.311,-1.044921875
117.319,-0.9765625
117.329,-0.88134765625
117.339,-0.83447265625
117.349,-0.83935546875
117.359,-0.83935546875
117.369,-0.798828125
117.379,-0.75048828125
117.389,-0.75
117.399,-0.80126953125
117.409,-0.841796875
117.419,-0.80419921875
117.429,-0.67919921875
117.439,-0.52783203125
117.449,-0.422607421875
117.459,-0.3857421875
117.469,-0.38232421875
117.479,-0.37109375
117.489,-0.35546875
117.499,-0.378662109375
117.509,-0.4716796875
117.513,-0.6201171875
117.523,-0.4765625
117.533,-0.3955078125
117.543,-0.44140625
117.553,-0.6318359375
117.563,-0.921875
117.573,-1.2138671875
117.583,-1.3994140625
117.593,-1.40234375
117.603,-1.2109375
117.613,-0.884765625
117.623,-0.52685546875
117.633,-0.2509765625
117.643,-0.138427734375
117.653,-0.206298828125
117.663,-0.411865234375
117.672,-0.68212890625
117.682,-0.94140625
117.692,-1.1259765625
117.702,-1.1982421875
117.712,-1.1513671875
117.722,-1.0009765625
117.732,-0.7734375
117.742,-0.493896484375
117.752,-0.1943359375
117.762,0.08123779296875
117.772,0.27685546875
117.782,0.33837890625
117.792,0.2359619140625
117.802,-0.0279541015625
117.812,-0.421142578125
117.822,-0.890625
117.832,-1.3779296875
117.842,-1.826171875
117.852,-2.18359375
117.862,-2.404296875
117.871,-2.453125
117.881,-2.3203125
117.891,-2.01953125
117.901,-1.5830078125
117.911,-1.060546875
117.921,-0.5107421875
117.931,0.0143661499023438
117.941,0.475830078125
117.951,0.8486328125
117.961,1.1220703125
117.971,1.30078125
117.981,1.388671875
117.991,1.376953125
118.001,1.2607421875
118.011,1.04296875
118.021,0.73681640625
118.031,0.376220703125
118.041,0.021636962890625
118.051,-0.255859375
118.061,-0.3974609375
118.069,-0.379638671875
118.079,-0.22705078125
118.089,-0.012725830078125
118.099,0.164794921875
118.109,0.2318115234375
118.119,0.1715087890625
118.129,0.018402099609375
118.139,-0.16064453125
118.149,-0.295166015625
118.159,-0.343505859375
118.169,-0.308349609375
118.179,-0.2310791015625
118.189,-0.1650390625
118.199,-0.1444091796875
118.209,-0.16552734375
118.219,-0.19189453125
118.229,-0.17724609375
118.239,-0.0958251953125
118.249,0.0284881591796875
118.259,0.13037109375
118.263,-0.200927734375
118.273,-0.1998291015625
118.283,-0.1566162109375
118.293,-0.1087646484375
118.303,-0.07183837890625
118.313,-0.030242919921875
118.323,0.046478271484375
118.333,0.1700439453125
118.343,0.3076171875
118.353,0.39501953125
118.363,0.377197265625
118.373,0.2432861328125
118.383,0.03680419921875
118.393,-0.1678466796875
118.403,-0.312255859375
118.413,-0.378662109375
118.422,-0.37353515625
118.432,-0.302001953125
118.442,-0.1610107421875
118.452,0.04486083984375
118.462,0.2802734375
118.472,0.469482421875
118.482,0.5302734375
118.492,0.427490234375
118.502,0.200927734375
118.512,-0.057037353515625
118.522,-0.24951171875
118.532,-0.32373046875
118.542,-0.296142578125
118.552,-0.2310791015625
118.562,-0.1890869140625
118.572,-0.190185546875
118.582,-0.210693359375
118.592,-0.21142578125
118.602,-0.172607421875
118.612,-0.11114501953125
118.621,-0.0670166015625
118.631,-0.0703125
118.641,-0.1187744140625
118.651,-0.1820068359375
118.661,-0.219970703125
118.671,-0.2073974609375
118.681,-0.1480712890625
118.691,-0.06402587890625
118.701,0.030059814453125
118.711,0.13330078125
118.721,0.2413330078125
118.731,0.326904296875
118.741,0.344970703125
118.751,0.2666015625
118.761,0.108154296875
118.771,-0.0758056640625
118.781,-0.2271728515625
118.791,-0.308349609375
118.801,-0.3095703125
118.811,-0.2391357421875
118.819,-0.11297607421875
118.829,0.0438232421875
118.839,0.1903076171875
118.849,0.279296875
118.859,0.287841796875
118.869,0.23779296875
118.879,0.1767578125
118.889,0.138671875
118.899,0.1246337890625
118.909,0.1202392578125
118.919,0.12164306640625
118.929,0.13818359375
118.939,0.172119140625
118.949,0.203125
118.959,0.2022705078125
118.969,0.1605224609375
118.979,0.0999755859375
118.989,0.047760009765625
118.999,0.00737762451171875
119.009,-0.037078857421875
119.013,-0.07208251953125
119.023,-0.040740966796875
119.033,-0.007110595703125
119.043,0.03289794921875
119.053,0.06756591796875
119.063,0.0771484375
119.073,0.054962158203125
119.083,0.01580810546875
119.093,-0.0178375244140625
119.103,-0.034454345703125
119.113,-0.034149169921875
119.123,-0.018951416015625
119.133,0.00913238525390625
119.143,0.04473876953125
119.153,0.08087158203125
119.163,0.11090087890625
119.172,0.13037109375
119.182,0.1412353515625
119.192,0.1439208984375
119.202,0.1275634765625
119.212,0.0792236328125
119.222,-0.00507354736328125
119.232,-0.1077880859375
119.242,-0.193359375
119.252,-0.2481689453125
119.262,-0.28662109375
119.272,-0.29931640625
119.282,-0.249267578125
119.292,-0.1273193359375
119.302,0.0284271240234375
119.312,0.162109375
119.322,0.2420654296875
119.332,0.276611328125
119.342,0.270263671875
119.352,0.2015380859375
119.362,0.08819580078125
119.37,0.00712966918945312
119.38,-0.000674247741699219
119.39,0.028564453125
119.4,0.057220458984375
119.41,0.0921630859375
119.42,0.15283203125
119.43,0.2449951171875
119.44,0.341796875
119.45,0.355224609375
119.46,0.166259765625
119.47,-0.264404296875
119.48,-0.84130859375
119.49,-1.3896484375
119.5,-1.7578125
119.51,-1.86328125
119.52,-1.685546875
119.53,-1.2666015625
119.54,-0.724609375
119.55,-0.2225341796875
119.56,0.10614013671875
119.569,0.208984375
119.579,0.1365966796875
119.589,0.016693115234375
119.599,-0.035430908203125
119.609,-0.0064239501953125
119.619,0.0272216796875
119.629,-0.0124359130859375
119.639,-0.146240234375
119.649,-0.3447265625
119.659,-0.56640625
119.669,-0.78173828125
119.679,-0.94970703125
119.689,-0.98095703125
119.699,-0.79296875
119.709,-0.428466796875
119.719,-0.05718994140625
119.729,0.157470703125
119.739,0.156005859375
119.749,-0.00618743896484375
119.759,-0.2088623046875
119.763,-0.4345703125
119.773,-0.29248046875
119.783,-0.032684326171875
119.793,0.2880859375
119.803,0.55029296875
119.813,0.64404296875
119.823,0.53662109375
119.833,0.288818359375
119.843,0.00568771362304688
119.853,-0.23388671875
119.863,-0.39892578125
119.873,-0.491455078125
119.883,-0.52685546875
119.893,-0.5126953125
119.903,-0.43603515625
119.913,-0.279541015625
119.922,-0.043212890625
119.932,0.2421875
119.942,0.5224609375
119.952,0.73974609375
119.962,0.8408203125
119.972,0.79296875
119.982,0.60498046875
119.992,0.328857421875
120.002,0.035675048828125
120.012,-0.216796875
120.022,-0.396484375
120.032,-0.5009765625
120.042,-0.54931640625
120.052,-0.568359375
120.062,-0.58837890625
120.072,-0.640625
120.082,-0.7392578125
120.092,-0.8740234375
120.102,-1.0166015625
120.112,-1.12890625
120.12,-1.1650390625
120.13,-1.0634765625
120.14,-0.78662109375
120.15,-0.357421875
120.16,0.154541015625
120.17,0.66650390625
120.18,1.0947265625
120.19,1.34375
120.2,1.3203125
120.21,1.0078125
120.22,0.46240234375
120.23,-0.24560546875
120.24,-1.0244140625
120.25,-1.7314453125
120.26,-2.216796875
120.27,-2.390625
120.28,-2.25
120.29,-1.8369140625
120.3,-1.22265625
120.31,-0.5107421875
120.319,0.1806640625
120.329,0.740234375
120.339,1.080078125
120.349,1.1630859375
120.359,1
120.369,0.64794921875
120.379,0.2139892578125
120.389,-0.172607421875
120.399,-0.416259765625
120.409,-0.49755859375
120.419,-0.455078125
120.429,-0.338134765625
120.439,-0.1871337890625
120.449,-0.042144775390625
120.459,0.05645751953125
120.469,0.07843017578125
120.479,0.0226593017578125
120.489,-0.08123779296875
120.499,-0.1915283203125
120.509,-0.27197265625
120.513,-0.0758056640625
120.523,-0.00542831420898438
120.533,0.0357666015625
120.543,0.05328369140625
120.553,0.05889892578125
120.563,0.05859375
120.573,0.051239013671875
120.583,0.03546142578125
120.593,0.021820068359375
120.603,0.024932861328125
120.613,0.044830322265625
120.623,0.07135009765625
120.633,0.09075927734375
120.643,0.08209228515625
120.653,0.0277862548828125
120.663,-0.07159423828125
120.671,-0.201171875
120.681,-0.3427734375
120.691,-0.48193359375
120.701,-0.60693359375
120.711,-0.70703125
120.721,-0.7744140625
120.731,-0.80517578125
120.741,-0.7978515625
120.751,-0.75830078125
120.761,-0.70458984375
120.771,-0.65771484375
120.781,-0.626953125
120.791,-0.61181640625
120.801,-0.61083984375
120.811,-0.62109375
120.821,-0.625
120.831,-0.60302734375
120.841,-0.54296875
120.851,-0.44775390625
120.861,-0.335205078125
120.87,-0.2274169921875
120.88,-0.1419677734375
120.89,-0.08563232421875
120.9,-0.055328369140625
120.91,-0.05029296875
120.92,-0.07061767578125
120.93,-0.10577392578125
120.94,-0.146728515625
120.95,-0.1939697265625
120.96,-0.240966796875
120.97,-0.2802734375
120.98,-0.31591796875
120.99,-0.351806640625
121,-0.38330078125
121.01,-0.412109375
121.02,-0.45263671875
121.03,-0.51025390625
121.04,-0.56201171875
121.05,-0.580078125
121.06,-0.5595703125
121.065,-0.204345703125
121.075,-0.08642578125
121.085,0.047698974609375
121.095,0.181640625
121.105,0.290771484375
121.115,0.354736328125
121.125,0.359619140625
121.135,0.2998046875
121.145,0.1822509765625
121.155,0.030975341796875
121.165,-0.11761474609375
121.175,-0.2288818359375
121.185,-0.28369140625
121.195,-0.28076171875
121.205,-0.2279052734375
121.215,-0.1446533203125
121.222,-0.05841064453125
121.232,0.0136260986328125
121.242,0.06475830078125
121.252,0.09075927734375
121.262,0.09124755859375
121.272,0.070556640625
121.282,0.03253173828125
121.292,-0.0202789306640625
121.302,-0.0865478515625
121.312,-0.1646728515625
121.322,-0.2474365234375
121.332,-0.31884765625
121.342,-0.360595703125
121.352,-0.361083984375
121.362,-0.31787109375
121.372,-0.23583984375
121.382,-0.1376953125
121.392,-0.0592041015625
121.402,-0.027740478515625
121.412,-0.048553466796875
121.421,-0.10955810546875
121.431,-0.1845703125
121.441,-0.238525390625
121.451,-0.2423095703125
121.461,-0.186767578125
121.471,-0.090087890625
121.481,0.01202392578125
121.491,0.088623046875
121.501,0.12347412109375
121.511,0.11529541015625
121.521,0.07598876953125
121.531,0.0197601318359375
121.541,-0.047576904296875
121.551,-0.12176513671875
121.561,-0.1939697265625
121.571,-0.2626953125
121.581,-0.3359375
121.591,-0.409912109375
121.601,-0.468505859375
121.611,-0.492919921875
121.62,-0.468994140625
121.63,-0.39404296875
121.64,-0.279296875
121.65,-0.142822265625
121.66,-0.00497055053710938
121.67,0.1123046875
121.68,0.19482421875
121.69,0.2388916015625
121.7,0.248046875
121.71,0.23388671875
121.72,0.208251953125
121.73,0.179443359375
121.74,0.1640625
121.75,0.1788330078125
121.76,0.2178955078125
121.77,0.260986328125
121.78,0.2880859375
121.79,0.273193359375
121.8,0.1920166015625
121.81,0.04437255859375
121.814,-0.53955078125
121.824,-0.48974609375
121.834,-0.410888671875
121.844,-0.323486328125
121.854,-0.244384765625
121.864,-0.1785888671875
121.874,-0.1275634765625
121.884,-0.091064453125
121.894,-0.05731201171875
121.904,-0.00717544555664062
121.914,0.06341552734375
121.924,0.135009765625
121.934,0.1807861328125
121.944,0.1854248046875
121.954,0.1505126953125
121.964,0.0928955078125
121.972,0.0357666015625
121.982,-0.0107269287109375
121.992,-0.059234619140625
122.002,-0.1278076171875
122.012,-0.2205810546875
122.022,-0.32275390625
122.032,-0.40234375
122.042,-0.42529296875
122.052,-0.3818359375
122.062,-0.28759765625
122.072,-0.1607666015625
122.082,-0.023681640625
122.092,0.09027099609375
122.102,0.1591796875
122.112,0.187744140625
122.122,0.1883544921875
122.132,0.1671142578125
122.142,0.131591796875
122.152,0.090087890625
122.162,0.03802490234375
122.171,-0.032257080078125
122.181,-0.1171875
122.191,-0.209716796875
122.201,-0.302978515625
122.211,-0.379150390625
122.221,-0.412353515625
122.231,-0.3837890625
122.241,-0.297119140625
122.251,-0.1817626953125
122.261,-0.070068359375
122.271,0.0251312255859375
122.281,0.09759521484375
122.291,0.133056640625
122.301,0.127685546875
122.311,0.0997314453125
122.321,0.06854248046875
122.331,0.040008544921875
122.341,0.01763916015625
122.351,0.00528335571289062
122.361,-0.00861358642578125
122.369,-0.049224853515625
122.379,-0.1282958984375
122.389,-0.23291015625
122.399,-0.33837890625
122.409,-0.420654296875
122.419,-0.4599609375
122.429,-0.448486328125
122.439,-0.395751953125
122.449,-0.3203125
122.459,-0.2421875
122.469,-0.177734375
122.479,-0.1363525390625
122.489,-0.11846923828125
122.499,-0.12646484375
122.509,-0.1724853515625
122.519,-0.265869140625
122.529,-0.407470703125
122.539,-0.58935546875
122.549,-0.7841796875
122.559,-0.939453125
122.563,-0.24755859375
122.573,0.245849609375
122.583,0.74658203125
122.593,1.138671875
122.603,1.341796875
122.613,1.306640625
122.623,1.0048828125
122.633,0.46484375
122.643,-0.2239990234375
122.653,-0.9267578125
122.663,-1.50390625
122.673,-1.8427734375
122.683,-1.880859375
122.693,-1.6357421875
122.703,-1.197265625
122.713,-0.68212890625
122.722,-0.19189453125
122.732,0.201904296875
122.742,0.4638671875
122.752,0.60791015625
122.762,0.68994140625
122.772,0.76025390625
122.782,0.8095703125
122.792,0.76318359375
122.802,0.5654296875
122.812,0.251708984375
122.822,-0.0882568359375
122.832,-0.39794921875
122.842,-0.66650390625
122.852,-0.88623046875
122.862,-1.041015625
122.872,-1.12109375
122.882,-1.1318359375
122.892,-1.0927734375
122.902,-1.033203125
122.912,-0.97509765625
122.921,-0.92919921875
122.931,-0.90087890625
122.941,-0.8935546875
122.951,-0.9052734375
122.961,-0.9208984375
122.971,-0.91845703125
122.981,-0.8876953125
122.991,-0.83740234375
123.001,-0.7822265625
123.011,-0.73486328125
123.021,-0.7109375
123.031,-0.72265625
123.041,-0.7685546875
123.051,-0.84814453125
123.061,-0.953125
123.071,-1.056640625
123.081,-1.1328125
123.091,-1.1767578125
123.101,-1.1904296875
123.111,-1.1787109375
123.119,-1.150390625
123.129,-1.12109375
123.139,-1.0966796875
123.149,-1.0732421875
123.159,-1.04296875
123.169,-1.001953125
123.179,-0.95361328125
123.189,-0.90380859375
123.199,-0.85693359375
123.209,-0.81298828125
123.219,-0.76806640625
123.229,-0.7275390625
123.239,-0.6982421875
123.249,-0.685546875
123.259,-0.68994140625
123.269,-0.71240234375
123.279,-0.751953125
123.289,-0.8017578125
123.299,-0.84765625
123.309,-0.88037109375
123.313,-0.79833984375
123.323,-0.78466796875
123.333,-0.78857421875
123.343,-0.80615234375
123.353,-0.83154296875
123.363,-0.85888671875
123.373,-0.880859375
123.383,-0.892578125
123.393,-0.8984375
123.403,-0.904296875
123.413,-0.91064453125
123.423,-0.91748046875
123.433,-0.92919921875
123.443,-0.94677734375
123.453,-0.96630859375
123.463,-0.98291015625
123.472,-0.990234375
123.482,-0.9833984375
123.492,-0.962890625
123.502,-0.93310546875
123.512,-0.89306640625
123.522,-0.84521484375
123.532,-0.80126953125
123.542,-0.77294921875
123.552,-0.75732421875
123.562,-0.7509765625
123.572,-0.75634765625
123.582,-0.7783203125
123.592,-0.80615234375
123.602,-0.81640625
123.612,-0.79443359375
123.622,-0.751953125
123.632,-0.7119140625
123.642,-0.68359375
123.652,-0.65869140625
123.662,-0.62548828125
123.671,-0.587890625
123.681,-0.5654296875
123.691,-0.57275390625
123.701,-0.59716796875
123.711,-0.603515625
123.721,-0.57275390625
123.731,-0.5244140625
123.741,-0.495849609375
123.751,-0.50537109375
123.761,-0.53662109375
123.771,-0.55859375
123.781,-0.5537109375
123.791,-0.53515625
123.801,-0.53955078125
123.811,-0.60400390625
123.821,-0.73046875
123.831,-0.88037109375
123.841,-0.98828125
123.851,-0.99462890625
123.861,-0.8828125
123.869,-0.69189453125
123.879,-0.4990234375
123.889,-0.380126953125
123.899,-0.378173828125
123.909,-0.48828125
123.919,-0.658203125
123.929,-0.8095703125
123.939,-0.8720703125
123.949,-0.81884765625
123.959,-0.666015625
123.969,-0.469482421875
123.979,-0.30517578125
123.989,-0.2431640625
123.999,-0.3154296875
124.009,-0.501953125
124.019,-0.7373046875
124.029,-0.93994140625
124.039,-1.0400390625
124.049,-1
124.059,-0.81640625
124.063,0.52490234375
124.073,0.51171875
124.083,0.370849609375
124.093,0.12939453125
124.103,-0.183837890625
124.113,-0.5478515625
124.123,-0.94140625
124.133,-1.330078125
124.143,-1.6591796875
124.153,-1.861328125
124.163,-1.88671875
124.173,-1.724609375
124.183,-1.40625
124.193,-1.0146484375
124.203,-0.6533203125
124.213,-0.4111328125
124.222,-0.32763671875
124.232,-0.388916015625
124.242,-0.525390625
124.252,-0.63671875
124.262,-0.638671875
124.272,-0.501953125
124.282,-0.271240234375
124.292,-0.0401611328125
124.302,0.09844970703125
124.312,0.10015869140625
124.322,-0.0168609619140625
124.332,-0.187255859375
124.342,-0.325439453125
124.352,-0.3603515625
124.362,-0.271728515625
124.372,-0.1046142578125
124.382,0.05255126953125
124.392,0.1160888671875
124.402,0.056976318359375
124.412,-0.086181640625
124.421,-0.2315673828125
124.431,-0.291015625
124.441,-0.20849609375
124.451,0.00921630859375
124.461,0.281005859375
124.471,0.48583984375
124.481,0.5244140625
124.491,0.373046875
124.501,0.0968017578125
124.511,-0.179931640625
124.521,-0.342529296875
124.531,-0.347900390625
124.541,-0.240478515625
124.551,-0.1192626953125
124.561,-0.0728759765625
124.571,-0.12164306640625
124.581,-0.21044921875
124.591,-0.254150390625
124.601,-0.19384765625
124.611,-0.0280609130859375
124.619,0.186279296875
124.629,0.357177734375
124.639,0.396728515625
124.649,0.271240234375
124.659,0.033538818359375
124.669,-0.2010498046875
124.679,-0.318359375
124.689,-0.256591796875
124.699,-0.0335693359375
124.709,0.2476806640625
124.719,0.430908203125
124.729,0.391845703125
124.739,0.12115478515625
124.749,-0.266845703125
124.759,-0.60400390625
124.769,-0.7578125
124.779,-0.69189453125
124.789,-0.474853515625
124.799,-0.2327880859375
124.809,-0.06317138671875
124.813,0.32177734375
124.823,0.26611328125
124.833,0.1031494140625
124.843,-0.08837890625
124.853,-0.213134765625
124.863,-0.224853515625
124.873,-0.1522216796875
124.883,-0.06219482421875
124.893,0.00293350219726562
124.903,0.0482177734375
124.913,0.09271240234375
124.923,0.1304931640625
124.933,0.1361083984375
124.943,0.103271484375
124.953,0.055938720703125
124.963,0.01629638671875
124.972,-0.0193023681640625
124.982,-0.0595703125
124.992,-0.0902099609375
125.002,-0.0875244140625
125.012,-0.053375244140625
125.022,-0.0180816650390625
125.032,-0.00729751586914062
125.042,-0.0208740234375
125.052,-0.047607421875
125.062,-0.0872802734375
125.072,-0.142333984375
125.082,-0.198486328125
125.092,-0.23681640625
125.102,-0.25634765625
125.112,-0.265625
125.122,-0.26513671875
125.132,-0.25244140625
125.142,-0.238037109375
125.152,-0.237060546875
125.162,-0.245849609375
125.171,-0.2386474609375
125.181,-0.20556640625
125.191,-0.1771240234375
125.201,-0.189453125
125.211,-0.2386474609375
125.221,-0.281982421875
125.231,-0.28515625
125.241,-0.257080078125
125.251,-0.22412109375
125.261,-0.1851806640625
125.271,-0.1263427734375
125.281,-0.06829833984375
125.291,-0.05438232421875
125.301,-0.0916748046875
125.311,-0.140869140625
125.321,-0.1678466796875
125.331,-0.1767578125
125.341,-0.1824951171875
125.351,-0.177001953125
125.361,-0.1435546875
125.369,-0.086181640625
125.379,-0.018707275390625
125.389,0.055023193359375
125.399,0.1295166015625
125.409,0.1844482421875
125.419,0.201416015625
125.429,0.186767578125
125.439,0.1566162109375
125.449,0.11553955078125
125.459,0.06610107421875
125.469,0.0244293212890625
125.479,0.0047454833984375
125.489,0.00415420532226562
125.499,0.01324462890625
125.509,0.029876708984375
125.519,0.051422119140625
125.529,0.0670166015625
125.539,0.07049560546875
125.549,0.068359375
125.559,0.0648193359375
125.563,-0.0273590087890625
125.573,-0.043060302734375
125.583,-0.044647216796875
125.593,-0.03802490234375
125.603,-0.033233642578125
125.613,-0.031646728515625
125.623,-0.03125
125.633,-0.03155517578125
125.643,-0.02923583984375
125.653,-0.023345947265625
125.663,-0.0176849365234375
125.673,-0.0098876953125
125.683,0.00587081909179688
125.693,0.025970458984375
125.703,0.04315185546875
125.713,0.05755615234375
125.723,0.07183837890625
125.733,0.08514404296875
125.743,0.091796875
125.753,0.08135986328125
125.763,0.048431396484375
125.773,-0.000763893127441406
125.783,-0.05755615234375
125.793,-0.11590576171875
125.803,-0.1673583984375
125.813,-0.201904296875
125.823,-0.2099609375
125.833,-0.1842041015625
125.843,-0.127197265625
125.853,-0.0499267578125
125.863,0.035552978515625
125.873,0.11749267578125
125.883,0.1890869140625
125.893,0.243896484375
125.903,0.26904296875
125.913,0.259521484375
125.921,0.2237548828125
125.931,0.171630859375
125.941,0.10968017578125
125.951,0.04449462890625
125.961,-0.0146102905273438
125.971,-0.05731201171875
125.981,-0.07781982421875
125.991,-0.0758056640625
126.001,-0.054718017578125
126.011,-0.0207672119140625
126.021,0.01690673828125
126.031,0.046478271484375
126.041,0.0601806640625
126.051,0.05706787109375
126.061,0.039520263671875
126.071,0.012451171875
126.081,-0.018402099609375
126.091,-0.0445556640625
126.101,-0.053009033203125
126.111,-0.034210205078125
126.119,0.00872802734375
126.129,0.060546875
126.139,0.10260009765625
126.149,0.1217041015625
126.159,0.115234375
126.169,0.09417724609375
126.179,0.07537841796875
126.189,0.0672607421875
126.199,0.0654296875
126.209,0.06390380859375
126.219,0.06292724609375
126.229,0.06427001953125
126.239,0.06915283203125
126.249,0.07635498046875
126.259,0.0826416015625
126.269,0.087646484375
126.279,0.094970703125
126.289,0.10595703125
126.299,0.1168212890625
126.309,0.125244140625
126.313,0.0863037109375
126.323,0.057769775390625
126.333,0.038848876953125
126.343,0.036346435546875
126.353,0.04998779296875
126.363,0.0789794921875
126.373,0.12030029296875
126.383,0.16064453125
126.393,0.181884765625
126.403,0.1744384765625
126.413,0.1358642578125
126.423,0.06732177734375
126.433,-0.019989013671875
126.443,-0.10400390625
126.453,-0.1680908203125
126.463,-0.2091064453125
126.472,-0.2298583984375
126.482,-0.2313232421875
126.492,-0.2139892578125
126.502,-0.185791015625
126.512,-0.1610107421875
126.522,-0.1448974609375
126.532,-0.131103515625
126.542,-0.11663818359375
126.552,-0.10205078125
126.562,-0.0836181640625
126.572,-0.05999755859375
126.582,-0.040863037109375
126.592,-0.0380859375
126.602,-0.05426025390625
126.612,-0.08740234375
126.622,-0.1376953125
126.632,-0.2021484375
126.642,-0.26806640625
126.652,-0.320068359375
126.662,-0.34912109375
126.67,-0.35400390625
126.68,-0.331298828125
126.69,-0.27783203125
126.7,-0.200927734375
126.71,-0.116455078125
126.72,-0.040985107421875
126.73,0.0112228393554688
126.74,0.031890869140625
126.75,0.0243988037109375
126.76,-0.00112628936767578
126.77,-0.03546142578125
126.78,-0.0697021484375
126.79,-0.09600830078125
126.8,-0.1138916015625
126.81,-0.1318359375
126.82,-0.15869140625
126.83,-0.19189453125
126.84,-0.219970703125
126.85,-0.231201171875
126.86,-0.22216796875
126.869,-0.19482421875
126.879,-0.1519775390625
126.889,-0.09967041015625
126.899,-0.045318603515625
126.909,0.00575637817382812
126.919,0.047607421875
126.929,0.0755615234375
126.939,0.08935546875
126.949,0.0894775390625
126.959,0.075927734375
126.969,0.051239013671875
126.979,0.0168304443359375
126.989,-0.0281982421875
126.999,-0.0806884765625
127.009,-0.1343994140625
127.019,-0.183837890625
127.029,-0.2191162109375
127.039,-0.2288818359375
127.049,-0.210205078125
127.059,-0.1689453125
127.063,0.040252685546875
127.073,0.0180206298828125
127.083,-0.0282135009765625
127.093,-0.08648681640625
127.103,-0.138916015625
127.113,-0.1724853515625
127.123,-0.180419921875
127.133,-0.1624755859375
127.143,-0.12939453125
127.153,-0.09442138671875
127.163,-0.059844970703125
127.173,-0.0249481201171875
127.183,0.004669189453125
127.193,0.027252197265625
127.203,0.047088623046875
127.213,0.064453125
127.222,0.07891845703125
127.232,0.09600830078125
127.242,0.119384765625
127.252,0.143310546875
127.262,0.1607666015625
127.272,0.16796875
127.282,0.1583251953125
127.292,0.124755859375
127.302,0.0732421875
127.312,0.02093505859375
127.322,-0.0257415771484375
127.332,-0.0753173828125
127.342,-0.1268310546875
127.352,-0.15771484375
127.362,-0.1494140625
127.372,-0.11212158203125
127.382,-0.0718994140625
127.392,-0.0478515625
127.402,-0.05419921875
127.412,-0.10302734375
127.42,-0.1881103515625
127.43,-0.278076171875
127.44,-0.335693359375
127.45,-0.336669921875
127.46,-0.260498046875
127.47,-0.10137939453125
127.48,0.0982666015625
127.49,0.25830078125
127.5,0.316650390625
127.51,0.260498046875
127.52,0.1142578125
127.53,-0.08038330078125
127.54,-0.272705078125
127.55,-0.417236328125
127.56,-0.491943359375
127.57,-0.5029296875
127.58,-0.4677734375
127.59,-0.400390625
127.6,-0.314208984375
127.61,-0.2327880859375
127.619,-0.1827392578125
127.629,-0.1712646484375
127.639,-0.1773681640625
127.649,-0.174560546875
127.659,-0.1495361328125
127.669,-0.0958251953125
127.679,-0.00984954833984375
127.689,0.09503173828125
127.699,0.18896484375
127.709,0.240478515625
127.719,0.2236328125
127.729,0.134765625
127.739,0.00271224975585938
127.749,-0.131103515625
127.759,-0.23828125
127.769,-0.31298828125
127.779,-0.37060546875
127.789,-0.4228515625
127.799,-0.455078125
127.809,-0.43896484375
127.813,-0.060546875
127.823,-0.06732177734375
127.833,-0.086669921875
127.843,-0.11614990234375
127.853,-0.1624755859375
127.863,-0.227294921875
127.873,-0.297607421875
127.883,-0.3505859375
127.893,-0.36669921875
127.903,-0.344482421875
127.913,-0.295654296875
127.923,-0.2347412109375
127.933,-0.1751708984375
127.943,-0.1270751953125
127.953,-0.0931396484375
127.963,-0.073974609375
127.972,-0.07080078125
127.982,-0.078369140625
127.992,-0.08837890625
128.002,-0.10040283203125
128.012,-0.1170654296875
128.022,-0.13818359375
128.032,-0.1619873046875
128.042,-0.1824951171875
128.052,-0.1953125
128.062,-0.2059326171875
128.072,-0.2220458984375
128.082,-0.247314453125
128.092,-0.28173828125
128.102,-0.31640625
128.112,-0.33544921875
128.122,-0.326171875
128.132,-0.2822265625
128.142,-0.2052001953125
128.152,-0.1094970703125
128.162,-0.0152740478515625
128.17,0.060089111328125
128.18,0.0992431640625
128.19,0.08624267578125
128.2,0.019775390625
128.21,-0.08636474609375
128.22,-0.2127685546875
128.23,-0.33203125
128.24,-0.414306640625
128.25,-0.44580078125
128.26,-0.43017578125
128.27,-0.381591796875
128.28,-0.322021484375
128.29,-0.271240234375
128.3,-0.2342529296875
128.31,-0.205322265625
128.32,-0.1790771484375
128.33,-0.1536865234375
128.34,-0.132080078125
128.35,-0.12078857421875
128.36,-0.127197265625
128.369,-0.1513671875
128.379,-0.18408203125
128.389,-0.2181396484375
128.399,-0.256103515625
128.409,-0.3037109375
128.419,-0.361083984375
128.429,-0.41943359375
128.439,-0.46142578125
128.449,-0.472900390625
128.459,-0.455810546875
128.469,-0.424560546875
128.479,-0.3984375
128.489,-0.39453125
128.499,-0.41845703125
128.509,-0.4619140625
128.519,-0.50830078125
128.529,-0.53759765625
128.539,-0.53369140625
128.549,-0.492431640625
128.559,-0.41650390625
128.563,-0.15673828125
128.573,-0.261474609375
128.583,-0.404296875
128.593,-0.55517578125
128.603,-0.6845703125
128.613,-0.76904296875
128.623,-0.80859375
128.633,-0.85107421875
128.643,-0.9697265625
128.653,-1.1748046875
128.663,-1.38671875
128.673,-1.5087890625
128.683,-1.4931640625
128.693,-1.34375
128.703,-1.0712890625
128.713,-0.677734375
128.722,-0.17919921875
128.732,0.364501953125
128.742,0.859375
128.752,1.203125
128.762,1.310546875
128.772,1.150390625
128.782,0.755859375
128.792,0.223388671875
128.802,-0.31494140625
128.812,-0.70703125
128.822,-0.85107421875
128.832,-0.77978515625
128.842,-0.63916015625
128.852,-0.5703125
128.862,-0.63720703125
128.872,-0.81005859375
128.882,-0.98681640625
128.892,-1.0693359375
128.902,-1.0517578125
128.912,-1.00390625
128.92,-0.9814453125
128.93,-0.97509765625
128.94,-0.96044921875
128.95,-0.953125
128.96,-0.98291015625
128.97,-1.029296875
128.98,-1.0263671875
128.99,-0.93994140625
129,-0.80859375
129.01,-0.7001953125
129.02,-0.6357421875
129.03,-0.5888671875
129.04,-0.54296875
129.05,-0.51025390625
129.06,-0.499755859375
129.07,-0.51025390625
129.08,-0.53759765625
129.09,-0.56787109375
129.1,-0.5693359375
129.11,-0.482177734375
129.119,-0.276611328125
129.129,-0.0234832763671875
129.139,0.1387939453125
129.149,0.1265869140625
129.159,-0.022857666015625
129.169,-0.2060546875
129.179,-0.33837890625
129.189,-0.380859375
129.199,-0.333740234375
129.209,-0.2265625
129.219,-0.1068115234375
129.229,-0.02056884765625
129.239,0.0100479125976562
129.249,-0.00952911376953125
129.259,-0.057647705078125
129.269,-0.1151123046875
129.279,-0.18310546875
129.289,-0.2744140625
129.299,-0.38427734375
129.309,-0.484130859375
129.313,-0.30615234375
129.323,-0.162353515625
129.333,-0.032501220703125
129.343,0.0341796875
129.353,0.00617218017578125
129.363,-0.113037109375
129.373,-0.29345703125
129.383,-0.490234375
129.393,-0.65869140625
129.403,-0.77734375
129.413,-0.85693359375
129.423,-0.92626953125
129.433,-1.00390625
129.443,-1.078125
129.453,-1.1279296875
129.463,-1.15625
129.472,-1.185546875
129.482,-1.2275390625
129.492,-1.26953125
129.502,-1.2998046875
129.512,-1.310546875
129.522,-1.2919921875
129.532,-1.234375
129.542,-1.1396484375
129.552,-1.0244140625
129.562,-0.90869140625
129.572,-0.82373046875
129.582,-0.7998046875
129.592,-0.83447265625
129.602,-0.90771484375
129.612,-1
129.622,-1.0888671875
129.632,-1.1435546875
129.642,-1.150390625
129.652,-1.1103515625
129.662,-1.0244140625
129.67,-0.90380859375
129.68,-0.77490234375
129.69,-0.66748046875
129.7,-0.60302734375
129.71,-0.59912109375
129.72,-0.66015625
129.73,-0.7666015625
129.74,-0.88671875
129.75,-0.99560546875
129.76,-1.0732421875
129.77,-1.1005859375
129.78,-1.0751953125
129.79,-1.005859375
129.8,-0.90869140625
129.81,-0.810546875
129.82,-0.736328125
129.83,-0.69873046875
129.84,-0.703125
129.85,-0.74560546875
129.86,-0.8125
129.869,-0.8837890625
129.879,-0.94140625
129.889,-0.9716796875
129.899,-0.97021484375
129.909,-0.939453125
129.919,-0.888671875
129.929,-0.8271484375
129.939,-0.7607421875
129.949,-0.6982421875
129.959,-0.64990234375
129.969,-0.62353515625
129.979,-0.61865234375
129.989,-0.6318359375
129.999,-0.6572265625
130.009,-0.6923828125
130.019,-0.73681640625
130.029,-0.78759765625
130.039,-0.8369140625
130.049,-0.8740234375
130.059,-0.892578125
130.063,-0.77490234375
130.073,-0.79345703125
130.083,-0.83544921875
130.093,-0.8857421875
130.103,-0.92578125
130.113,-0.93701171875
130.123,-0.91015625
130.133,-0.85400390625
130.143,-0.7900390625
130.153,-0.7353515625
130.163,-0.6982421875
130.173,-0.68310546875
130.183,-0.6904296875
130.193,-0.712890625
130.203,-0.73681640625
130.213,-0.75341796875
130.222,-0.75439453125
130.232,-0.7392578125
130.242,-0.71435546875
130.252,-0.6845703125
130.262,-0.6552734375
130.272,-0.63623046875
130.282,-0.63916015625
130.292,-0.66650390625
130.302,-0.71484375
130.312,-0.7724609375
130.322,-0.81787109375
130.332,-0.828125
130.342,-0.79345703125
130.352,-0.7197265625
130.362,-0.61962890625
130.372,-0.50390625
130.382,-0.37109375
130.392,-0.2120361328125
130.402,-0.03546142578125
130.412,0.1331787109375
130.42,0.267333984375
130.43,0.346435546875
130.44,0.36181640625
130.45,0.319091796875
