Time,AccelerometerX
539.605,-0.396728515625
539.615,-0.62890625
539.625,-0.79541015625
539.635,-0.880859375
539.645,-0.853515625
539.655,-0.6865234375
539.657,-0.1588134765625
539.667,-0.041748046875
539.677,-0.08050537109375
539.687,-0.200439453125
539.697,-0.323974609375
539.707,-0.409912109375
539.717,-0.44384765625
539.727,-0.416015625
539.737,-0.31982421875
539.747,-0.1827392578125
539.757,-0.06268310546875
539.767,-0.0133514404296875
539.777,-0.06048583984375
539.787,-0.1868896484375
539.797,-0.347412109375
539.807,-0.50244140625
539.817,-0.62646484375
539.827,-0.70654296875
539.837,-0.734375
539.846,-0.603515625
539.856,-0.478759765625
539.866,-0.3759765625
539.876,-0.321533203125
539.886,-0.294921875
539.896,-0.261474609375
539.906,-0.2069091796875
539.916,-0.14404296875
539.926,-0.10369873046875
539.936,-0.09710693359375
539.946,-0.09454345703125
539.956,-0.0574951171875
539.966,0.0174407958984375
539.976,0.0855712890625
539.986,0.092529296875
539.996,0.036163330078125
540.006,-0.05181884765625
540.016,-0.1644287109375
540.026,-0.3076171875
540.035,-0.48681640625
540.045,-0.7177734375
540.055,-0.99560546875
540.065,-1.2734375
540.075,-1.4853515625
540.085,-1.57421875
540.095,-1.501953125
540.105,-1.25390625
540.115,-0.849609375
540.125,-0.380615234375
540.135,0.0125656127929688
540.145,0.2296142578125
540.155,0.26708984375
540.165,0.1728515625
540.175,0.00679779052734375
540.185,-0.160888671875
540.195,-0.283447265625
540.205,-0.358642578125
540.215,-0.396484375
540.225,-0.401123046875
540.234,-0.37646484375
540.244,-0.32958984375
540.254,-0.274658203125
540.264,-0.233154296875
540.274,-0.2362060546875
540.284,-0.311767578125
540.294,-0.445068359375
540.304,-0.5634765625
540.314,-0.59326171875
540.324,-0.52099609375
540.334,-0.374755859375
540.344,-0.1932373046875
540.354,-0.0200958251953125
540.364,0.10052490234375
540.374,0.1400146484375
540.384,0.09564208984375
540.394,-0.017730712890625
540.404,-0.1761474609375
540.414,-0.339599609375
540.424,-0.466064453125
540.428,-0.595703125
540.438,-0.587890625
540.448,-0.59375
540.458,-0.615234375
540.468,-0.63525390625
540.478,-0.630859375
540.488,-0.59765625
540.498,-0.55908203125
540.508,-0.54638671875
540.518,-0.57177734375
540.528,-0.61767578125
540.538,-0.64306640625
540.548,-0.61474609375
540.558,-0.5390625
540.568,-0.456298828125
540.578,-0.4013671875
540.586,-0.381591796875
540.596,-0.379638671875
540.606,-0.37353515625
540.616,-0.36474609375
540.626,-0.3798828125
540.636,-0.43115234375
540.646,-0.495361328125
540.656,-0.5439453125
540.666,-0.572265625
540.676,-0.59326171875
540.686,-0.60693359375
540.696,-0.5830078125
540.706,-0.5048828125
540.716,-0.39990234375
540.726,-0.323974609375
540.736,-0.3330078125
540.746,-0.435791015625
540.756,-0.58154296875
540.766,-0.71142578125
540.776,-0.79345703125
540.785,-0.83251953125
540.795,-0.841796875
540.805,-0.8134765625
540.815,-0.724609375
540.825,-0.5751953125
540.835,-0.4072265625
540.845,-0.2841796875
540.855,-0.2423095703125
540.865,-0.27490234375
540.875,-0.3427734375
540.885,-0.406494140625
540.895,-0.465576171875
540.905,-0.54345703125
540.915,-0.64111328125
540.925,-0.7138671875
540.935,-0.705078125
540.945,-0.61328125
540.955,-0.5146484375
540.965,-0.497314453125
540.975,-0.5791015625
540.984,-0.7041015625
540.994,-0.80908203125
541.004,-0.88232421875
541.014,-0.943359375
541.024,-0.99267578125
541.034,-0.99755859375
541.044,-0.91259765625
541.054,-0.7294921875
541.064,-0.5048828125
541.074,-0.32470703125
541.084,-0.24267578125
541.094,-0.252197265625
541.104,-0.30908203125
541.114,-0.3828125
541.124,-0.466552734375
541.134,-0.54736328125
541.144,-0.5888671875
541.154,-0.552734375
541.164,-0.443603515625
541.174,-0.3212890625
541.178,-0.32568359375
541.188,-0.37646484375
541.198,-0.461181640625
541.208,-0.55078125
541.218,-0.61376953125
541.228,-0.6494140625
541.238,-0.67724609375
541.248,-0.71484375
541.258,-0.76123046875
541.268,-0.78369140625
541.278,-0.740234375
541.288,-0.6142578125
541.298,-0.439697265625
541.308,-0.27880859375
541.318,-0.1790771484375
541.328,-0.1419677734375
541.336,-0.155029296875
541.346,-0.226806640625
541.356,-0.3779296875
541.366,-0.60546875
541.376,-0.85693359375
541.386,-1.0537109375
541.396,-1.154296875
541.406,-1.1767578125
541.416,-1.1533203125
541.426,-1.083984375
541.436,-0.953125
541.446,-0.7744140625
541.456,-0.5966796875
541.466,-0.4638671875
541.476,-0.401123046875
541.486,-0.402099609375
541.496,-0.424072265625
541.506,-0.4287109375
541.516,-0.416748046875
541.526,-0.417236328125
541.535,-0.458984375
541.545,-0.54052734375
541.555,-0.61767578125
541.565,-0.6318359375
541.575,-0.5693359375
541.585,-0.477783203125
541.595,-0.41748046875
541.605,-0.404052734375
541.615,-0.42578125
541.625,-0.48486328125
541.635,-0.583984375
541.645,-0.6962890625
541.655,-0.7705078125
541.665,-0.75439453125
541.675,-0.62109375
541.685,-0.40087890625
541.695,-0.183837890625
541.705,-0.060516357421875
541.715,-0.06884765625
541.725,-0.1856689453125
541.734,-0.34521484375
541.744,-0.482177734375
541.754,-0.58203125
541.764,-0.677734375
541.774,-0.78759765625
541.784,-0.875
541.794,-0.88525390625
541.804,-0.822265625
541.814,-0.73583984375
541.824,-0.654296875
541.834,-0.58154296875
541.844,-0.513671875
541.854,-0.447509765625
541.864,-0.408935546875
541.874,-0.4345703125
541.884,-0.51416015625
541.894,-0.595703125
541.904,-0.64111328125
541.914,-0.6611328125
541.924,-0.6865234375
541.928,-0.72412109375
541.938,-0.5458984375
541.948,-0.3671875
541.958,-0.259033203125
541.968,-0.25244140625
541.978,-0.30517578125
541.988,-0.336669921875
541.998,-0.296630859375
542.008,-0.2030029296875
542.018,-0.12054443359375
542.028,-0.10845947265625
542.038,-0.16943359375
542.048,-0.2479248046875
542.058,-0.2841796875
542.068,-0.272216796875
542.078,-0.26416015625
542.086,-0.32763671875
542.096,-0.4853515625
542.106,-0.677734375
542.116,-0.7900390625
542.126,-0.73388671875
542.136,-0.50927734375
542.146,-0.201171875
542.156,0.0718994140625
542.166,0.2139892578125
542.176,0.1956787109375
542.186,0.059539794921875
542.196,-0.133544921875
542.206,-0.355224609375
542.216,-0.59521484375
542.226,-0.81689453125
542.236,-0.9541015625
542.246,-0.95263671875
542.256,-0.79443359375
542.266,-0.5087890625
542.276,-0.1815185546875
542.285,0.07635498046875
542.295,0.1785888671875
542.305,0.09185791015625
542.315,-0.1512451171875
542.325,-0.450439453125
542.335,-0.66845703125
542.345,-0.70068359375
542.355,-0.55224609375
542.365,-0.349365234375
542.375,-0.253173828125
542.385,-0.354248046875
542.395,-0.6328125
542.405,-0.994140625
542.415,-1.3203125
542.425,-1.5166015625
542.435,-1.5224609375
542.445,-1.3310546875
542.455,-1.0048828125
542.465,-0.63916015625
542.475,-0.294189453125
542.484,0.00426483154296875
542.494,0.23486328125
542.504,0.355224609375
542.514,0.309326171875
542.524,0.092041015625
542.534,-0.231201171875
542.544,-0.58056640625
542.554,-0.8916015625
542.564,-1.099609375
542.574,-1.1318359375
542.584,-0.93994140625
542.594,-0.57763671875
542.604,-0.1981201171875
542.614,0.069091796875
542.624,0.1754150390625
542.634,0.1341552734375
542.644,-0.0204620361328125
542.654,-0.267333984375
542.664,-0.5908203125
542.674,-0.95849609375
542.678,-1.1669921875
542.688,-0.7841796875
542.698,-0.432373046875
542.708,-0.188720703125
542.718,-0.090576171875
542.728,-0.12445068359375
542.738,-0.2410888671875
542.748,-0.390625
542.758,-0.53857421875
542.768,-0.65087890625
542.778,-0.677734375
542.788,-0.5625
542.798,-0.279541015625
542.808,0.1287841796875
542.818,0.56494140625
542.828,0.9150390625
542.836,1.0771484375
542.846,0.994140625
542.856,0.6669921875
542.866,0.1490478515625
542.876,-0.4677734375
542.886,-1.05859375
542.896,-1.4892578125
542.906,-1.6611328125
542.916,-1.5546875
542.926,-1.2216796875
542.936,-0.75244140625
542.946,-0.25
542.956,0.190673828125
542.966,0.49755859375
542.976,0.61962890625
542.986,0.53076171875
542.996,0.257080078125
543.006,-0.1104736328125
543.016,-0.444580078125
543.026,-0.64013671875
543.035,-0.65576171875
543.045,-0.50244140625
543.055,-0.2188720703125
543.065,0.120361328125
543.075,0.40576171875
543.085,0.5263671875
543.095,0.430419921875
543.105,0.1688232421875
543.115,-0.14697265625
543.125,-0.4189453125
543.135,-0.58447265625
543.145,-0.6220703125
543.155,-0.55419921875
543.165,-0.416259765625
543.175,-0.2398681640625
543.185,-0.057952880859375
543.195,0.10888671875
543.205,0.25634765625
543.215,0.375
543.225,0.429931640625
543.234,0.359130859375
543.244,0.11700439453125
543.254,-0.2744140625
543.264,-0.72998046875
543.274,-1.1474609375
543.284,-1.4482421875
543.294,-1.5859375
543.304,-1.5458984375
543.314,-1.3505859375
543.324,-1.0732421875
543.334,-0.82470703125
543.344,-0.69482421875
543.354,-0.72509765625
543.364,-0.892578125
543.374,-1.1201171875
543.384,-1.3193359375
543.394,-1.412109375
543.404,-1.3466796875
543.414,-1.12890625
543.424,-0.81787109375
543.428,-0.2237548828125
543.438,-0.489990234375
543.448,-0.841796875
543.458,-1.201171875
543.468,-1.494140625
543.478,-1.6689453125
543.488,-1.6923828125
543.498,-1.5517578125
543.508,-1.26953125
543.518,-0.8974609375
543.528,-0.492919921875
543.538,-0.1094970703125
543.548,0.199951171875
543.558,0.393310546875
543.568,0.439208984375
543.578,0.329833984375
543.586,0.0877685546875
543.596,-0.24951171875
543.606,-0.6328125
543.616,-1.001953125
543.626,-1.310546875
543.636,-1.5234375
543.646,-1.611328125
543.656,-1.560546875
543.666,-1.3857421875
543.676,-1.107421875
543.686,-0.75830078125
543.696,-0.380126953125
543.706,-0.0142898559570312
543.716,0.29833984375
543.726,0.53271484375
543.736,0.6748046875
543.746,0.70263671875
543.756,0.59375
543.766,0.338623046875
543.776,-0.05035400390625
543.785,-0.52734375
543.795,-1.01953125
543.805,-1.4423828125
543.815,-1.70703125
543.825,-1.76171875
543.835,-1.603515625
543.845,-1.2666015625
543.855,-0.8173828125
543.865,-0.35009765625
543.875,0.0435791015625
543.885,0.2939453125
543.895,0.3642578125
543.905,0.258544921875
543.915,0.0168914794921875
543.925,-0.287353515625
543.935,-0.564453125
543.945,-0.751953125
543.955,-0.82568359375
543.965,-0.79296875
543.975,-0.689453125
543.978,-0.38818359375
543.988,-0.398193359375
543.998,-0.420166015625
544.008,-0.43603515625
544.018,-0.429931640625
544.028,-0.392333984375
544.038,-0.325927734375
544.048,-0.252197265625
544.058,-0.1995849609375
544.068,-0.17919921875
544.078,-0.190673828125
544.088,-0.2286376953125
544.098,-0.283203125
544.108,-0.344970703125
544.118,-0.4033203125
544.128,-0.447265625
544.138,-0.470947265625
544.147,-0.449951171875
544.157,-0.402587890625
544.167,-0.334716796875
544.177,-0.262939453125
544.187,-0.2169189453125
544.197,-0.2117919921875
544.207,-0.2410888671875
544.217,-0.287353515625
544.227,-0.32861328125
544.237,-0.350830078125
544.247,-0.3505859375
544.257,-0.3193359375
544.267,-0.250732421875
544.277,-0.160400390625
544.287,-0.0885009765625
544.297,-0.0848388671875
544.307,-0.177001953125
544.317,-0.343994140625
544.327,-0.52392578125
544.336,-0.650390625
544.346,-0.68212890625
544.356,-0.6220703125
544.366,-0.50927734375
544.376,-0.391357421875
544.386,-0.302001953125
544.396,-0.2498779296875
544.406,-0.2208251953125
544.416,-0.1949462890625
544.426,-0.16064453125
544.436,-0.125244140625
544.446,-0.1077880859375
544.456,-0.12060546875
544.466,-0.165283203125
544.476,-0.2293701171875
544.486,-0.286376953125
544.496,-0.315185546875
544.506,-0.313720703125
544.516,-0.29931640625
544.526,-0.30224609375
544.535,-0.3447265625
544.545,-0.4287109375
544.555,-0.5341796875
544.565,-0.61669921875
544.575,-0.62353515625
544.585,-0.5380859375
544.595,-0.389892578125
544.605,-0.2347412109375
544.615,-0.1282958984375
544.625,-0.104248046875
544.635,-0.1624755859375
544.645,-0.272705078125
544.655,-0.386474609375
544.665,-0.457763671875
544.675,-0.4599609375
544.685,-0.3955078125
544.695,-0.296875
544.705,-0.203125
544.715,-0.1295166015625
544.725,-0.07928466796875
544.728,-0.257568359375
544.738,-0.396728515625
544.748,-0.5185546875
544.758,-0.58544921875
544.768,-0.5751953125
544.778,-0.496826171875
544.788,-0.39013671875
544.798,-0.30419921875
544.808,-0.270751953125
544.818,-0.294189453125
544.828,-0.36962890625
544.838,-0.486328125
544.848,-0.61767578125
544.858,-0.7275390625
544.868,-0.7978515625
544.878,-0.853515625
544.888,-0.935546875
544.897,-1.2255859375
544.907,-1.3955078125
544.917,-1.5390625
544.927,-1.6328125
544.937,-1.6669921875
544.947,-1.6494140625
544.957,-1.6083984375
544.967,-1.572265625
544.977,-1.5576171875
544.987,-1.5673828125
544.997,-1.5888671875
545.007,-1.6064453125
545.017,-1.6005859375
545.027,-1.5654296875
545.037,-1.5029296875
545.047,-1.4306640625
545.057,-1.3681640625
545.067,-1.3251953125
545.077,-1.2978515625
545.086,-1.27734375
545.096,-1.2548828125
545.106,-1.2236328125
545.116,-1.17578125
545.126,-1.111328125
545.136,-1.0390625
545.146,-0.9716796875
545.156,-0.921875
545.166,-0.89990234375
545.176,-0.912109375
545.186,-0.95703125
545.196,-1.0224609375
545.206,-1.0947265625
545.216,-1.15625
545.226,-1.19140625
545.236,-1.1875
545.246,-1.1435546875
545.256,-1.0693359375
545.266,-0.98291015625
545.276,-0.9013671875
545.285,-0.83154296875
545.295,-0.77880859375
545.305,-0.74169921875
545.315,-0.71142578125
545.325,-0.6904296875
545.335,-0.69287109375
545.345,-0.7373046875
545.355,-0.8330078125
545.365,-0.9599609375
545.375,-1.078125
545.385,-1.1591796875
545.395,-1.2001953125
545.405,-1.2119140625
545.415,-1.20703125
545.425,-1.185546875
545.435,-1.146484375
545.445,-1.1005859375
545.455,-1.0625
545.465,-1.0341796875
545.475,-1.0107421875
545.48,-1.0478515625
545.49,-1.0654296875
545.5,-1.0224609375
545.51,-0.92236328125
545.52,-0.79833984375
545.53,-0.68798828125
545.54,-0.61669921875
545.55,-0.59619140625
545.56,-0.619140625
545.57,-0.66796875
545.58,-0.72412109375
545.59,-0.76513671875
545.6,-0.76904296875
545.61,-0.72998046875
545.62,-0.6572265625
545.63,-0.5703125
545.637,-0.487548828125
545.647,-0.41943359375
545.657,-0.37060546875
545.667,-0.342529296875
545.677,-0.32958984375
545.687,-0.322998046875
545.697,-0.314453125
545.707,-0.29736328125
545.717,-0.27001953125
545.727,-0.2396240234375
545.737,-0.22021484375
545.747,-0.23046875
545.757,-0.29296875
545.767,-0.419677734375
545.777,-0.5927734375
545.787,-0.77734375
545.797,-0.935546875
545.807,-1.0283203125
545.817,-1.033203125
545.827,-0.96533203125
545.836,-0.85546875
545.846,-0.73828125
545.856,-0.63427734375
545.866,-0.54248046875
545.876,-0.43994140625
545.886,-0.3115234375
545.896,-0.159912109375
545.906,0.0058746337890625
545.916,0.164306640625
545.926,0.28759765625
545.936,0.36083984375
545.946,0.377685546875
545.956,0.3330078125
545.966,0.2340087890625
545.976,0.10284423828125
545.986,-0.0292205810546875
545.996,-0.140380859375
546.006,-0.2294921875
546.016,-0.297607421875
546.026,-0.329345703125
546.035,-0.30322265625
546.045,-0.2183837890625
546.055,-0.09832763671875
546.065,0.024932861328125
546.075,0.11962890625
546.085,0.1588134765625
546.095,0.12066650390625
546.105,-0.00582504272460938
546.115,-0.2001953125
546.125,-0.412353515625
546.135,-0.5869140625
546.145,-0.67822265625
546.155,-0.662109375
546.165,-0.552734375
546.175,-0.388916015625
546.185,-0.2197265625
546.195,-0.09356689453125
546.205,-0.0316162109375
546.215,-0.0196380615234375
546.225,-0.03204345703125
546.229,-0.0311126708984375
546.239,-0.015045166015625
546.249,-0.00714874267578125
546.259,-0.0133514404296875
546.269,-0.034759521484375
546.279,-0.07568359375
546.289,-0.140869140625
546.299,-0.2288818359375
546.309,-0.331298828125
546.319,-0.427490234375
546.329,-0.493408203125
546.339,-0.52685546875
546.349,-0.54541015625
546.359,-0.57666015625
546.369,-0.65087890625
546.379,-0.78369140625
546.389,-0.96630859375
546.397,-1.3798828125
546.407,-1.55078125
546.417,-1.658203125
546.427,-1.681640625
546.437,-1.625
546.447,-1.51953125
546.457,-1.400390625
546.467,-1.28515625
546.477,-1.169921875
546.487,-1.0517578125
546.497,-0.9453125
546.507,-0.8720703125
546.517,-0.8359375
546.527,-0.83154296875
546.537,-0.857421875
546.547,-0.9072265625
546.557,-0.95263671875
546.567,-0.9619140625
546.577,-0.931640625
546.586,-0.88330078125
546.596,-0.8330078125
546.606,-0.791015625
546.616,-0.77294921875
546.626,-0.7880859375
546.636,-0.81787109375
546.646,-0.83447265625
546.656,-0.828125
546.666,-0.80859375
546.676,-0.78173828125
546.686,-0.75
546.696,-0.72119140625
546.706,-0.7080078125
546.716,-0.716796875
546.726,-0.73388671875
546.736,-0.73388671875
546.746,-0.71337890625
546.756,-0.70068359375
546.766,-0.716796875
546.776,-0.748046875
546.785,-0.763671875
546.795,-0.7529296875
546.805,-0.73876953125
546.815,-0.7490234375
546.825,-0.78369140625
546.835,-0.81103515625
546.845,-0.79345703125
546.855,-0.7197265625
546.865,-0.6171875
546.875,-0.5283203125
546.885,-0.48095703125
546.895,-0.4658203125
546.905,-0.454345703125
546.915,-0.4287109375
546.925,-0.389892578125
546.935,-0.34814453125
546.945,-0.310791015625
546.955,-0.27685546875
546.965,-0.2386474609375
546.975,-0.192138671875
546.978,-0.5244140625
546.988,-0.7705078125
546.998,-0.99951171875
547.008,-1.171875
547.018,-1.26953125
547.028,-1.302734375
547.038,-1.296875
547.048,-1.2666015625
547.058,-1.216796875
547.068,-1.1611328125
547.078,-1.1123046875
547.088,-1.080078125
547.098,-1.0703125
547.108,-1.0732421875
547.118,-1.0771484375
547.128,-1.0703125
547.138,-1.04296875
547.147,-0.9072265625
547.157,-0.80908203125
547.167,-0.69921875
547.177,-0.59912109375
547.187,-0.53857421875
547.197,-0.53515625
547.207,-0.59423828125
547.217,-0.70068359375
547.227,-0.82177734375
547.237,-0.9169921875
547.247,-0.95556640625
547.257,-0.9306640625
547.267,-0.85791015625
547.277,-0.7578125
547.287,-0.65625
547.297,-0.57861328125
547.307,-0.5302734375
547.317,-0.499267578125
547.327,-0.48388671875
547.336,-0.493896484375
547.346,-0.53173828125
547.356,-0.58935546875
547.366,-0.6513671875
547.376,-0.703125
547.386,-0.736328125
547.396,-0.74853515625
547.406,-0.74072265625
547.416,-0.71484375
547.426,-0.677734375
547.436,-0.6416015625
547.446,-0.61865234375
547.456,-0.6162109375
547.466,-0.6357421875
547.476,-0.673828125
547.486,-0.7216796875
547.496,-0.7685546875
547.506,-0.80224609375
547.516,-0.81591796875
547.526,-0.806640625
547.535,-0.78271484375
547.545,-0.7548828125
547.555,-0.7216796875
547.565,-0.67529296875
547.575,-0.6142578125
547.585,-0.55126953125
547.595,-0.50341796875
547.605,-0.47998046875
547.615,-0.488525390625
547.625,-0.5244140625
547.635,-0.56201171875
547.645,-0.57275390625
547.655,-0.55224609375
547.665,-0.51123046875
547.675,-0.466064453125
547.685,-0.4287109375
547.695,-0.408203125
547.705,-0.407958984375
547.715,-0.427734375
547.725,-0.46923828125
547.729,-0.80224609375
547.739,-0.84765625
547.749,-0.822265625
547.759,-0.71337890625
547.769,-0.5390625
547.779,-0.333740234375
547.789,-0.1534423828125
547.799,-0.050079345703125
547.809,-0.0355224609375
547.819,-0.09228515625
547.829,-0.19287109375
547.839,-0.3017578125
547.849,-0.395751953125
547.859,-0.465576171875
547.869,-0.50048828125
547.879,-0.497314453125
547.889,-0.46728515625
547.897,-0.3974609375
547.907,-0.37255859375
547.917,-0.353515625
547.927,-0.340576171875
547.937,-0.3359375
547.947,-0.333740234375
547.957,-0.31884765625
547.967,-0.2734375
547.977,-0.1920166015625
547.987,-0.09259033203125
547.997,-0.00289154052734375
548.007,0.0557861328125
548.017,0.0596923828125
548.027,-0.0089874267578125
548.037,-0.1429443359375
548.047,-0.318115234375
548.057,-0.5068359375
548.067,-0.6826171875
548.077,-0.82275390625
548.086,-0.916015625
548.096,-0.96435546875
548.106,-0.97705078125
548.116,-0.9599609375
548.126,-0.916015625
548.136,-0.845703125
548.146,-0.7587890625
548.156,-0.6767578125
548.166,-0.615234375
548.176,-0.57861328125
548.186,-0.56298828125
548.196,-0.5634765625
548.206,-0.57763671875
548.216,-0.6044921875
548.226,-0.64501953125
548.236,-0.697265625
548.246,-0.74560546875
548.256,-0.77197265625
548.266,-0.7646484375
548.276,-0.71435546875
548.284,-0.625
548.294,-0.529296875
548.304,-0.464599609375
548.314,-0.45068359375
548.324,-0.492431640625
548.334,-0.5810546875
548.344,-0.6884765625
548.354,-0.77734375
548.364,-0.81591796875
548.374,-0.78564453125
548.384,-0.6865234375
548.394,-0.53759765625
548.404,-0.363525390625
548.414,-0.18408203125
548.424,-0.0161590576171875
548.434,0.11773681640625
548.444,0.193115234375
548.454,0.19677734375
548.464,0.142333984375
548.474,0.06500244140625
548.478,0.033538818359375
548.488,0.059967041015625
548.498,0.06781005859375
548.508,0.037017822265625
548.518,-0.03851318359375
548.528,-0.1414794921875
548.538,-0.2398681640625
548.548,-0.30078125
548.558,-0.30517578125
548.568,-0.253662109375
548.578,-0.1651611328125
548.588,-0.06988525390625
548.598,0.00122261047363281
548.608,0.03472900390625
548.618,0.038238525390625
548.628,0.0273284912109375
548.637,0.012542724609375
548.647,-0.000797748565673828
548.657,-0.00664520263671875
548.667,-0.00319480895996094
548.677,0.001373291015625
548.687,-0.00345420837402344
548.697,-0.0228118896484375
548.707,-0.058013916015625
548.717,-0.107421875
548.727,-0.161376953125
548.737,-0.2032470703125
548.747,-0.2205810546875
548.757,-0.21240234375
548.767,-0.1826171875
548.777,-0.134521484375
548.787,-0.078857421875
548.797,-0.037567138671875
548.807,-0.031890869140625
548.817,-0.06982421875
548.827,-0.1424560546875
548.836,-0.229248046875
548.846,-0.305908203125
548.856,-0.35400390625
548.866,-0.3681640625
548.876,-0.350341796875
548.886,-0.30712890625
548.896,-0.24853515625
548.906,-0.1856689453125
548.916,-0.130859375
548.926,-0.093017578125
548.936,-0.07012939453125
548.946,-0.05426025390625
548.956,-0.041778564453125
548.966,-0.034942626953125
548.976,-0.040008544921875
548.986,-0.06585693359375
548.996,-0.115234375
549.006,-0.182861328125
549.016,-0.263427734375
549.026,-0.35009765625
549.034,-0.4287109375
549.044,-0.480224609375
549.054,-0.489013671875
549.064,-0.451171875
549.074,-0.380859375
549.084,-0.300537109375
549.094,-0.223876953125
549.104,-0.1517333984375
549.114,-0.08489990234375
549.124,-0.029083251953125
549.134,0.00942230224609375
549.144,0.0290374755859375
549.154,0.0307769775390625
549.164,0.0158538818359375
549.174,-0.0101699829101562
549.184,-0.03558349609375
549.194,-0.0526123046875
549.204,-0.06597900390625
549.214,-0.08447265625
549.224,-0.111083984375
549.228,-0.34765625
549.238,-0.348876953125
549.248,-0.323486328125
549.258,-0.271240234375
549.268,-0.1893310546875
549.278,-0.0799560546875
549.288,0.03759765625
549.298,0.1260986328125
549.308,0.158203125
549.318,0.1376953125
549.328,0.086181640625
549.338,0.027191162109375
549.348,-0.02264404296875
549.358,-0.057220458984375
549.368,-0.07196044921875
549.378,-0.05975341796875
549.387,-0.0245819091796875
549.397,0.0145797729492188
549.407,0.037841796875
549.417,0.039947509765625
549.427,0.03656005859375
549.437,0.047210693359375
549.447,0.07025146484375
549.457,0.08880615234375
549.467,0.09320068359375
549.477,0.08685302734375
549.487,0.0809326171875
549.497,0.0823974609375
549.507,0.0845947265625
549.517,0.07611083984375
549.527,0.055511474609375
549.537,0.03143310546875
549.547,0.0146865844726562
549.557,0.0117568969726562
549.567,0.0235137939453125
549.577,0.046722412109375
549.586,0.07171630859375
549.596,0.086181640625
549.606,0.08502197265625
549.616,0.07281494140625
549.626,0.058319091796875
549.636,0.04888916015625
549.646,0.0447998046875
549.656,0.041259765625
549.666,0.036651611328125
549.676,0.0341796875
549.686,0.03668212890625
549.696,0.040618896484375
549.706,0.0364990234375
549.716,0.0165863037109375
549.726,-0.0194244384765625
549.736,-0.06329345703125
549.746,-0.1053466796875
549.756,-0.1427001953125
549.766,-0.1708984375
549.776,-0.17724609375
549.784,-0.15380859375
549.794,-0.10540771484375
549.804,-0.043792724609375
549.814,0.017608642578125
549.824,0.06988525390625
549.834,0.1102294921875
549.844,0.136962890625
549.854,0.144775390625
549.864,0.1260986328125
549.874,0.08416748046875
549.884,0.034210205078125
549.894,-0.0130996704101562
549.904,-0.055694580078125
549.914,-0.09271240234375
549.924,-0.12298583984375
549.934,-0.144775390625
549.944,-0.1544189453125
549.954,-0.1473388671875
549.964,-0.12322998046875
549.974,-0.09039306640625
549.978,-0.00884246826171875
549.988,-0.0164337158203125
549.998,-0.0263214111328125
550.008,-0.04107666015625
550.018,-0.057861328125
550.028,-0.06927490234375
550.038,-0.07220458984375
550.048,-0.06695556640625
550.058,-0.053741455078125
550.068,-0.035614013671875
550.078,-0.01995849609375
550.088,-0.0144424438476562
550.098,-0.024169921875
550.108,-0.04791259765625
550.118,-0.07513427734375
550.128,-0.09228515625
550.137,-0.09259033203125
550.147,-0.07977294921875
550.157,-0.061798095703125
550.167,-0.04150390625
550.177,-0.0155487060546875
550.187,0.016571044921875
550.197,0.045257568359375
550.207,0.054656982421875
550.217,0.034423828125
550.227,-0.0108413696289062
550.237,-0.06365966796875
550.247,-0.10614013671875
550.257,-0.1302490234375
550.267,-0.135009765625
550.277,-0.12139892578125
550.287,-0.094482421875
550.297,-0.06170654296875
550.307,-0.0295257568359375
550.317,-0.00450515747070312
550.327,0.0105361938476562
550.336,0.0191497802734375
550.346,0.0220489501953125
550.356,0.0108261108398438
550.366,-0.0223236083984375
550.376,-0.07470703125
550.386,-0.136474609375
550.396,-0.1942138671875
550.406,-0.2325439453125
550.416,-0.241943359375
550.426,-0.2196044921875
550.436,-0.1634521484375
550.446,-0.08123779296875
550.456,-0.00241470336914062
550.466,0.0389404296875
550.476,0.031768798828125
550.486,-0.00763320922851562
550.496,-0.050537109375
550.506,-0.0712890625
550.516,-0.059326171875
550.526,-0.022735595703125
550.534,0.021148681640625
550.544,0.05908203125
550.554,0.0804443359375
550.564,0.0693359375
550.574,0.0159149169921875
550.584,-0.07183837890625
550.594,-0.17724609375
550.604,-0.279541015625
550.614,-0.35302734375
550.624,-0.382568359375
550.634,-0.374755859375
550.644,-0.33984375
550.654,-0.275634765625
550.664,-0.1839599609375
550.674,-0.08148193359375
550.684,0.0117034912109375
550.694,0.07861328125
550.704,0.1021728515625
550.714,0.07501220703125
550.724,0.0093841552734375
550.728,-0.25537109375
550.738,-0.2315673828125
550.748,-0.1812744140625
550.758,-0.1263427734375
550.768,-0.087890625
550.778,-0.07452392578125
550.788,-0.0869140625
550.798,-0.1180419921875
550.808,-0.1485595703125
550.818,-0.1611328125
550.828,-0.1551513671875
550.838,-0.136474609375
550.848,-0.1055908203125
550.858,-0.06787109375
550.868,-0.040191650390625
550.878,-0.0362548828125
550.887,-0.061553955078125
550.897,-0.11474609375
550.907,-0.1846923828125
550.917,-0.25439453125
550.927,-0.30712890625
550.937,-0.324462890625
550.947,-0.291748046875
550.957,-0.2166748046875
550.967,-0.1273193359375
550.977,-0.0482177734375
550.987,0.00452041625976562
550.997,0.0139541625976562
551.007,-0.0237884521484375
551.017,-0.089111328125
551.027,-0.155517578125
551.037,-0.2022705078125
551.047,-0.214599609375
551.057,-0.1934814453125
551.067,-0.15673828125
551.077,-0.12286376953125
551.086,-0.10546875
551.096,-0.11578369140625
551.106,-0.1529541015625
551.116,-0.1988525390625
551.126,-0.2349853515625
551.136,-0.253662109375
551.146,-0.25537109375
551.156,-0.244140625
551.166,-0.2230224609375
551.176,-0.1915283203125
551.186,-0.15869140625
551.196,-0.140625
551.206,-0.1435546875
551.216,-0.163330078125
551.226,-0.1942138671875
551.236,-0.2293701171875
551.246,-0.261474609375
551.256,-0.28466796875
551.266,-0.295166015625
551.276,-0.29052734375
551.284,-0.267578125
551.294,-0.21630859375
551.304,-0.131103515625
551.314,-0.033050537109375
551.324,0.034515380859375
551.334,0.0357666015625
551.344,-0.03216552734375
551.354,-0.1380615234375
551.364,-0.2386474609375
551.374,-0.302490234375
551.384,-0.321044921875
551.394,-0.307373046875
551.404,-0.284912109375
551.414,-0.2724609375
551.424,-0.272705078125
551.434,-0.2724609375
551.444,-0.2509765625
551.454,-0.203125
551.464,-0.149658203125
551.474,-0.1190185546875
551.478,-0.45068359375
551.488,-0.4697265625
551.498,-0.4150390625
551.508,-0.29541015625
551.518,-0.1405029296875
551.528,0.00568771362304688
551.538,0.091552734375
551.548,0.08544921875
551.558,-0.00807952880859375
551.568,-0.161376953125
551.578,-0.333984375
551.588,-0.47998046875
551.598,-0.56103515625
551.608,-0.55859375
551.618,-0.472900390625
551.628,-0.330078125
551.637,-0.175048828125
551.647,-0.04840087890625
551.657,0.0235595703125
551.667,0.031585693359375
551.677,-0.00951385498046875
551.687,-0.070556640625
551.697,-0.1273193359375
551.707,-0.1668701171875
551.717,-0.1900634765625
551.727,-0.2113037109375
551.737,-0.2474365234375
551.747,-0.305419921875
551.757,-0.3837890625
551.767,-0.47314453125
551.777,-0.55810546875
551.787,-0.61865234375
551.797,-0.6357421875
551.807,-0.59814453125
551.817,-0.5087890625
551.827,-0.383056640625
551.836,-0.243408203125
551.846,-0.12103271484375
551.856,-0.04498291015625
551.866,-0.02508544921875
551.876,-0.04986572265625
551.886,-0.095947265625
551.896,-0.1416015625
551.906,-0.172119140625
551.916,-0.1783447265625
551.926,-0.1636962890625
551.936,-0.1468505859375
551.946,-0.1463623046875
551.956,-0.1708984375
551.966,-0.2216796875
551.976,-0.2919921875
551.986,-0.365478515625
551.996,-0.421630859375
552.006,-0.43994140625
552.016,-0.408935546875
552.026,-0.333984375
552.034,-0.233642578125
552.044,-0.135498046875
552.054,-0.074462890625
552.064,-0.07855224609375
552.074,-0.155029296875
552.084,-0.29296875
552.094,-0.46826171875
552.104,-0.64453125
552.114,-0.7841796875
552.124,-0.857421875
552.134,-0.85400390625
552.144,-0.78173828125
552.154,-0.65966796875
552.164,-0.52294921875
552.174,-0.4189453125
552.184,-0.37744140625
552.194,-0.400390625
552.204,-0.474365234375
552.214,-0.5810546875
552.224,-0.70068359375
552.228,-1.04296875
552.238,-1.0537109375
552.248,-1.0625
552.258,-1.064453125
552.268,-1.060546875
552.278,-1.0556640625
552.288,-1.0595703125
552.298,-1.0830078125
552.308,-1.1220703125
552.318,-1.1650390625
552.328,-1.2021484375
552.338,-1.22265625
552.348,-1.220703125
552.358,-1.197265625
552.368,-1.1611328125
552.378,-1.1142578125
552.387,-1.05859375
552.397,-0.9970703125
552.407,-0.931640625
552.417,-0.86572265625
552.427,-0.8017578125
552.437,-0.748046875
552.447,-0.71826171875
552.457,-0.72314453125
552.467,-0.763671875
552.477,-0.82958984375
552.487,-0.9052734375
552.497,-0.97705078125
552.507,-1.0400390625
552.517,-1.09765625
552.527,-1.1455078125
552.537,-1.17578125
552.547,-1.1845703125
552.557,-1.1689453125
552.567,-1.1298828125
552.577,-1.078125
552.585,-1.0263671875
552.595,-0.982421875
552.605,-0.94775390625
552.615,-0.91748046875
552.625,-0.88427734375
552.635,-0.84619140625
552.645,-0.80712890625
552.655,-0.7724609375
552.665,-0.75146484375
552.675,-0.75048828125
552.685,-0.7626953125
552.695,-0.779296875
552.705,-0.80224609375
552.715,-0.833984375
552.725,-0.86962890625
552.735,-0.89697265625
552.745,-0.90869140625
552.755,-0.90771484375
552.765,-0.90087890625
552.775,-0.89794921875
552.784,-0.9033203125
552.794,-0.90966796875
552.804,-0.90869140625
552.814,-0.90087890625
552.824,-0.8828125
552.834,-0.8466796875
552.844,-0.79150390625
552.854,-0.72900390625
552.864,-0.673828125
552.874,-0.63330078125
552.884,-0.60986328125
552.894,-0.60205078125
552.904,-0.60888671875
552.914,-0.62939453125
552.924,-0.66064453125
552.934,-0.69189453125
552.944,-0.71142578125
552.954,-0.71484375
552.964,-0.70068359375
552.974,-0.66845703125
552.978,-0.6171875
552.988,-0.66845703125
552.998,-0.71435546875
553.008,-0.73388671875
553.018,-0.71484375
553.028,-0.66162109375
553.038,-0.59228515625
553.048,-0.5302734375
553.058,-0.49609375
553.068,-0.499267578125
553.078,-0.53466796875
553.088,-0.58935546875
553.098,-0.65234375
553.108,-0.7119140625
553.118,-0.75341796875
553.128,-0.76708984375
553.137,-0.7548828125
553.147,-0.7294921875
553.157,-0.69775390625
553.167,-0.65966796875
553.177,-0.61376953125
553.187,-0.5595703125
553.197,-0.498779296875
553.207,-0.426513671875
553.217,-0.333251953125
553.227,-0.222900390625
553.237,-0.12103271484375
553.247,-0.05804443359375
553.257,-0.04217529296875
553.267,-0.054931640625
553.277,-0.06903076171875
553.287,-0.06988525390625
553.297,-0.060455322265625
553.307,-0.04986572265625
553.317,-0.043792724609375
553.327,-0.042938232421875
553.335,-0.049835205078125
553.345,-0.07672119140625
553.355,-0.138916015625
553.365,-0.2366943359375
553.375,-0.347900390625
553.385,-0.436767578125
553.395,-0.46484375
553.405,-0.410888671875
553.415,-0.281982421875
553.425,-0.1138916015625
553.435,0.050079345703125
553.445,0.175048828125
553.455,0.2381591796875
553.465,0.231689453125
553.475,0.170166015625
553.485,0.0816650390625
553.495,-0.00757217407226562
553.505,-0.0802001953125
553.515,-0.1346435546875
553.525,-0.190673828125
553.534,-0.265625
553.544,-0.350830078125
553.554,-0.423095703125
553.564,-0.465576171875
553.574,-0.468994140625
553.584,-0.43017578125
553.594,-0.352783203125
553.604,-0.2529296875
553.614,-0.1546630859375
553.624,-0.07122802734375
553.634,0.00193881988525391
553.644,0.07159423828125
553.654,0.137451171875
553.664,0.1968994140625
553.674,0.243896484375
553.684,0.26806640625
553.694,0.260009765625
553.704,0.2159423828125
553.714,0.144287109375
553.724,0.0638427734375
553.728,-0.1475830078125
553.738,-0.249755859375
553.748,-0.386474609375
553.758,-0.5224609375
553.768,-0.6162109375
553.778,-0.64013671875
553.788,-0.59326171875
553.798,-0.48876953125
553.808,-0.341064453125
553.818,-0.167724609375
553.828,0.00557708740234375
553.838,0.154296875
553.848,0.258056640625
553.858,0.296630859375
553.868,0.2607421875
553.878,0.169189453125
553.887,0.0606689453125
553.897,-0.0242767333984375
553.907,-0.060150146484375
553.917,-0.046478271484375
553.927,-0.00228309631347656
553.937,0.050445556640625
553.947,0.09344482421875
553.957,0.11798095703125
553.967,0.130615234375
553.977,0.139892578125
553.987,0.149169921875
553.997,0.1671142578125
554.007,0.199462890625
554.017,0.232666015625
554.027,0.2415771484375
554.037,0.21240234375
554.047,0.1483154296875
554.057,0.059844970703125
554.067,-0.0367431640625
554.077,-0.12396240234375
554.085,-0.193603515625
554.095,-0.2449951171875
554.105,-0.283935546875
554.115,-0.320068359375
554.125,-0.35986328125
554.135,-0.396484375
554.145,-0.402099609375
554.155,-0.354736328125
554.165,-0.259521484375
554.175,-0.1348876953125
554.185,0.002960205078125
554.195,0.1318359375
554.205,0.2252197265625
554.215,0.2734375
554.225,0.288818359375
554.235,0.275634765625
554.245,0.22216796875
554.255,0.122314453125
554.265,-0.0122604370117188
554.275,-0.158935546875
554.284,-0.291748046875
554.294,-0.384521484375
554.304,-0.4130859375
554.314,-0.361572265625
554.324,-0.23779296875
554.334,-0.0699462890625
554.344,0.10699462890625
554.354,0.2568359375
554.364,0.348876953125
554.374,0.364501953125
554.384,0.29736328125
554.394,0.159912109375
554.404,-0.01226806640625
554.414,-0.1763916015625
554.424,-0.29736328125
554.434,-0.35400390625
554.444,-0.344482421875
554.454,-0.281982421875
554.464,-0.189697265625
554.474,-0.0921630859375
554.478,-0.036590576171875
554.488,-0.123779296875
554.498,-0.207275390625
554.508,-0.263916015625
554.518,-0.2763671875
554.528,-0.2359619140625
554.538,-0.1461181640625
554.548,-0.0219573974609375
554.558,0.11083984375
554.568,0.2156982421875
554.578,0.2646484375
554.588,0.255859375
554.598,0.2025146484375
554.608,0.12249755859375
554.618,0.036407470703125
554.628,-0.04144287109375
554.637,-0.10601806640625
554.647,-0.1502685546875
554.657,-0.1658935546875
554.667,-0.150146484375
554.677,-0.10369873046875
554.687,-0.034912109375
554.697,0.037841796875
554.707,0.09686279296875
554.717,0.1270751953125
554.727,0.11376953125
554.737,0.053955078125
554.747,-0.035858154296875
554.757,-0.1312255859375
554.767,-0.206787109375
554.777,-0.2398681640625
554.787,-0.2242431640625
554.797,-0.1693115234375
554.807,-0.08746337890625
554.817,-0.000676155090332031
554.827,0.05950927734375
554.835,0.07421875
554.845,0.044769287109375
554.855,-0.017791748046875
554.865,-0.09063720703125
554.875,-0.1495361328125
554.885,-0.202880859375
554.895,-0.281982421875
554.905,-0.39453125
554.915,-0.517578125
554.925,-0.6025390625
554.935,-0.58837890625
554.945,-0.447509765625
554.955,-0.198486328125
554.965,0.08856201171875
554.975,0.30078125
554.985,0.350341796875
554.995,0.2342529296875
555.005,0.02215576171875
555.015,-0.2059326171875
555.025,-0.43017578125
555.034,-0.673828125
555.044,-0.90185546875
555.054,-1.0361328125
555.064,-1.0576171875
555.074,-0.98193359375
555.084,-0.78857421875
555.094,-0.462158203125
555.104,-0.053680419921875
555.114,0.335693359375
555.124,0.61865234375
555.134,0.74560546875
555.144,0.71484375
555.154,0.56689453125
555.164,0.362060546875
555.174,0.199951171875
555.184,0.204345703125
555.194,0.40185546875
555.204,0.6787109375
555.214,0.89599609375
555.224,0.98486328125
555.228,0.1654052734375
555.238,-0.030853271484375
555.248,-0.167236328125
555.258,-0.2353515625
555.268,-0.252685546875
555.278,-0.258544921875
555.288,-0.27685546875
555.298,-0.285400390625
555.308,-0.2403564453125
555.318,-0.1416015625
555.328,-0.06024169921875
555.338,-0.07843017578125
555.348,-0.2176513671875
555.358,-0.4296875
555.368,-0.63330078125
555.378,-0.75927734375
555.387,-0.7734375
555.397,-0.6796875
555.407,-0.513671875
555.417,-0.333740234375
555.427,-0.17919921875
555.437,-0.051055908203125
555.447,0.07061767578125
555.457,0.1903076171875
555.467,0.284423828125
555.477,0.322509765625
555.487,0.292236328125
555.497,0.1998291015625
555.507,0.057891845703125
555.517,-0.11334228515625
555.527,-0.2802734375
555.537,-0.4052734375
555.547,-0.47265625
555.557,-0.49169921875
555.567,-0.47802734375
555.577,-0.439697265625
555.585,-0.376708984375
555.595,-0.288330078125
555.605,-0.1820068359375
555.615,-0.0791015625
555.625,-0.007904052734375
555.635,0.0147628784179688
555.645,-0.00426864624023438
555.655,-0.04034423828125
555.665,-0.0743408203125
555.675,-0.10833740234375
555.685,-0.15087890625
555.695,-0.2021484375
555.705,-0.253662109375
555.715,-0.287353515625
555.725,-0.28857421875
555.735,-0.265380859375
555.745,-0.23974609375
555.755,-0.2283935546875
555.765,-0.231201171875
555.775,-0.235107421875
555.784,-0.2259521484375
555.794,-0.20068359375
555.804,-0.1693115234375
555.814,-0.142578125
555.824,-0.1259765625
555.834,-0.12109375
555.844,-0.12066650390625
555.854,-0.11376953125
555.864,-0.1016845703125
555.874,-0.0989990234375
555.884,-0.11907958984375
555.894,-0.1666259765625
555.904,-0.23583984375
555.914,-0.305419921875
555.924,-0.349365234375
555.934,-0.356689453125
555.944,-0.32958984375
555.954,-0.278564453125
555.964,-0.22314453125
555.974,-0.1820068359375
555.978,-0.1514892578125
555.988,-0.1429443359375
555.998,-0.154052734375
556.008,-0.1922607421875
556.018,-0.25244140625
556.028,-0.318115234375
556.038,-0.371826171875
556.048,-0.399658203125
556.058,-0.39404296875
556.068,-0.35498046875
556.078,-0.291259765625
556.088,-0.2176513671875
556.098,-0.1488037109375
556.108,-0.09881591796875
556.118,-0.07623291015625
556.128,-0.07928466796875
556.137,-0.09869384765625
556.147,-0.12298583984375
556.157,-0.14111328125
556.167,-0.14697265625
556.177,-0.1424560546875
556.187,-0.1336669921875
556.197,-0.1318359375
556.207,-0.152587890625
556.217,-0.2037353515625
556.227,-0.275390625
556.237,-0.34912109375
556.247,-0.40625
556.257,-0.43212890625
556.267,-0.427001953125
556.277,-0.402099609375
556.287,-0.366455078125
556.297,-0.322265625
556.307,-0.267578125
556.317,-0.201904296875
556.327,-0.136474609375
556.335,-0.09307861328125
556.345,-0.08837890625
556.355,-0.1297607421875
556.365,-0.212890625
556.375,-0.319091796875
556.385,-0.426513671875
556.395,-0.517578125
556.405,-0.57763671875
556.415,-0.5947265625
556.425,-0.5673828125
556.435,-0.5009765625
556.445,-0.40771484375
556.455,-0.30517578125
556.465,-0.2132568359375
556.475,-0.1483154296875
556.485,-0.12255859375
556.495,-0.1424560546875
556.505,-0.203369140625
556.515,-0.29638671875
556.525,-0.40966796875
556.534,-0.52099609375
556.544,-0.60888671875
556.554,-0.65966796875
556.564,-0.6650390625
556.574,-0.62548828125
556.584,-0.55419921875
556.594,-0.46630859375
556.604,-0.373046875
556.614,-0.285888671875
556.624,-0.2188720703125
556.634,-0.1834716796875
556.644,-0.1873779296875
556.654,-0.2276611328125
556.664,-0.289306640625
556.674,-0.35498046875
556.684,-0.408935546875
556.694,-0.44189453125
556.704,-0.45703125
556.714,-0.458984375
556.724,-0.45361328125
556.728,-0.5390625
556.738,-0.59814453125
556.748,-0.6708984375
556.758,-0.74169921875
556.768,-0.7939453125
556.778,-0.822265625
556.788,-0.822265625
556.798,-0.79248046875
556.808,-0.744140625
556.818,-0.68701171875
556.828,-0.62841796875
556.838,-0.5810546875
556.848,-0.55224609375
556.858,-0.5439453125
556.868,-0.55908203125
556.878,-0.5966796875
556.886,-0.64892578125
556.896,-0.7099609375
556.906,-0.76611328125
556.916,-0.80322265625
556.926,-0.81787109375
556.936,-0.80908203125
556.946,-0.78076171875
556.956,-0.7490234375
556.966,-0.72705078125
556.976,-0.7177734375
556.986,-0.7197265625
556.996,-0.72509765625
557.006,-0.72265625
557.016,-0.70556640625
557.026,-0.66455078125
557.036,-0.59521484375
557.046,-0.501953125
557.056,-0.392333984375
557.066,-0.276611328125
557.076,-0.1632080078125
557.085,-0.054473876953125
557.095,0.041351318359375
557.105,0.1082763671875
557.115,0.1348876953125
557.125,0.1170654296875
557.135,0.06207275390625
557.145,-0.00952911376953125
557.155,-0.07769775390625
557.165,-0.12890625
557.175,-0.1566162109375
557.185,-0.1663818359375
557.195,-0.1710205078125
557.205,-0.185302734375
557.215,-0.2276611328125
557.225,-0.31103515625
557.235,-0.4326171875
557.245,-0.5771484375
557.255,-0.7236328125
557.265,-0.84765625
557.275,-0.94091796875
557.284,-1.0146484375
557.294,-1.0849609375
557.304,-1.154296875
557.314,-1.208984375
557.324,-1.23046875
557.334,-1.216796875
557.344,-1.1806640625
557.354,-1.142578125
557.364,-1.1259765625
557.374,-1.1416015625
557.384,-1.173828125
557.394,-1.1982421875
557.404,-1.21484375
557.414,-1.248046875
557.424,-1.3115234375
557.434,-1.373046875
557.444,-1.3935546875
557.454,-1.376953125
557.464,-1.369140625
557.474,-1.4296875
557.477,-2.328125
557.487,-2.505859375
557.497,-2.529296875
557.507,-2.38671875
557.517,-2.146484375
557.527,-1.8916015625
557.537,-1.67578125
557.547,-1.5107421875
557.557,-1.3955078125
557.567,-1.3349609375
557.577,-1.34765625
557.587,-1.453125
557.597,-1.6259765625
557.607,-1.787109375
557.617,-1.865234375
557.627,-1.83984375
557.637,-1.734375
557.646,-1.451171875
557.656,-1.3291015625
557.666,-1.2333984375
557.676,-1.1591796875
557.686,-1.095703125
557.696,-1.033203125
557.706,-0.9658203125
557.716,-0.88818359375
557.726,-0.806640625
557.736,-0.73779296875
557.746,-0.6982421875
557.756,-0.697265625
557.766,-0.73388671875
557.776,-0.79833984375
557.786,-0.8740234375
557.796,-0.94580078125
557.806,-1.0107421875
557.816,-1.0751953125
557.826,-1.146484375
557.835,-1.216796875
557.845,-1.2734375
557.855,-1.3017578125
557.865,-1.2880859375
557.875,-1.2392578125
557.885,-1.1708984375
557.895,-1.1025390625
557.905,-1.048828125
557.915,-1.021484375
557.925,-1.0244140625
557.935,-1.0478515625
557.945,-1.0751953125
557.955,-1.08984375
557.965,-1.0830078125
557.975,-1.056640625
557.985,-1.0244140625
557.995,-1.00390625
558.005,-1.005859375
558.015,-1.033203125
558.025,-1.083984375
558.034,-1.14453125
558.044,-1.1962890625
558.054,-1.2236328125
558.064,-1.216796875
558.074,-1.173828125
558.084,-1.0986328125
558.094,-1.00390625
558.104,-0.9072265625
558.114,-0.82568359375
558.124,-0.77783203125
558.134,-0.77783203125
558.144,-0.83203125
558.154,-0.92919921875
558.164,-1.04296875
558.174,-1.1435546875
558.184,-1.2001953125
558.194,-1.2021484375
558.204,-1.1591796875
558.214,-1.0859375
558.224,-0.9970703125
558.228,-0.8232421875
558.238,-0.8330078125
558.248,-0.85205078125
558.258,-0.88134765625
558.268,-0.92578125
558.278,-0.98681640625
558.288,-1.0478515625
558.298,-1.0869140625
558.308,-1.0859375
558.318,-1.03125
558.328,-0.923828125
558.338,-0.78955078125
558.348,-0.66259765625
558.358,-0.568359375
558.368,-0.51123046875
558.378,-0.489501953125
558.388,-0.5029296875
558.396,-0.630859375
558.406,-0.72216796875
558.416,-0.8154296875
558.426,-0.90478515625
558.436,-0.974609375
558.446,-1.0185546875
558.456,-1.0478515625
558.466,-1.060546875
558.476,-1.0537109375
558.486,-1.0322265625
558.496,-0.99609375
558.506,-0.9521484375
558.516,-0.9208984375
558.526,-0.90234375
558.536,-0.88671875
558.546,-0.884765625
558.556,-0.90380859375
558.566,-0.927734375
558.576,-0.9521484375
558.585,-0.98876953125
558.595,-1.0244140625
558.605,-1.0302734375
558.615,-1.0048828125
558.625,-0.96484375
558.635,-0.9130859375
558.645,-0.853515625
558.655,-0.80810546875
558.665,-0.80224609375
558.675,-0.83154296875
558.685,-0.86083984375
558.695,-0.8701171875
558.705,-0.8759765625
558.715,-0.89306640625
558.725,-0.90478515625
558.735,-0.8837890625
558.745,-0.833984375
558.755,-0.7861328125
558.765,-0.7529296875
558.775,-0.71435546875
558.784,-0.65966796875
558.794,-0.60888671875
558.804,-0.58544921875
558.814,-0.5859375
558.824,-0.59716796875
558.834,-0.61767578125
558.844,-0.6533203125
558.854,-0.68798828125
558.864,-0.69384765625
558.874,-0.6630859375
558.884,-0.61962890625
558.894,-0.58251953125
558.904,-0.5400390625
558.914,-0.47216796875
558.924,-0.39013671875
558.934,-0.33251953125
558.944,-0.3291015625
558.954,-0.368408203125
558.964,-0.416259765625
558.974,-0.45654296875
558.977,-0.5546875
558.987,-0.470458984375
558.997,-0.37255859375
559.007,-0.30029296875
559.017,-0.24951171875
559.027,-0.1881103515625
559.037,-0.10076904296875
559.047,-0.0167236328125
559.057,0.00245285034179688
559.067,-0.08831787109375
559.077,-0.27294921875
559.087,-0.478515625
559.097,-0.62841796875
559.107,-0.69140625
559.117,-0.689453125
559.127,-0.6748046875
559.137,-0.677734375
559.146,-0.67822265625
559.156,-0.63330078125
559.166,-0.552734375
559.176,-0.431884765625
559.186,-0.258056640625
559.196,-0.031463623046875
559.206,0.2183837890625
559.216,0.4306640625
559.226,0.53857421875
559.236,0.5185546875
559.246,0.412353515625
559.256,0.2763671875
559.266,0.1260986328125
559.276,-0.057373046875
559.286,-0.27978515625
559.296,-0.5126953125
559.306,-0.71484375
559.316,-0.857421875
559.326,-0.92138671875
559.335,-0.8984375
559.345,-0.79638671875
559.355,-0.62646484375
559.365,-0.41259765625
559.375,-0.1990966796875
559.385,-0.03271484375
559.395,0.06640625
559.405,0.1094970703125
559.415,0.1282958984375
559.425,0.148193359375
559.435,0.170654296875
559.445,0.183837890625
559.455,0.1763916015625
559.465,0.1470947265625
559.475,0.10748291015625
559.485,0.0728759765625
559.495,0.05426025390625
559.505,0.06256103515625
559.515,0.10125732421875
559.525,0.14990234375
559.534,0.1734619140625
559.544,0.1494140625
559.554,0.08367919921875
559.564,0.004425048828125
559.574,-0.0687255859375
559.584,-0.1429443359375
559.594,-0.2325439453125
559.604,-0.331787109375
559.614,-0.416748046875
559.624,-0.462158203125
559.634,-0.457275390625
559.644,-0.409912109375
559.654,-0.334228515625
559.664,-0.243896484375
559.674,-0.154052734375
559.684,-0.07342529296875
559.694,-0.000584125518798828
559.704,0.062103271484375
559.714,0.10211181640625
559.724,0.10546875
559.728,-0.135498046875
559.738,-0.155029296875
559.748,-0.155029296875
559.758,-0.143310546875
559.768,-0.126220703125
559.778,-0.097412109375
559.788,-0.0516357421875
559.798,0.00405502319335938
559.808,0.05767822265625
559.818,0.09906005859375
559.828,0.11767578125
559.838,0.10498046875
559.848,0.06689453125
559.858,0.0260162353515625
559.868,0.000661373138427734
559.878,-0.00727462768554688
559.886,-0.00302314758300781
559.896,0.00862884521484375
559.906,0.0213470458984375
559.916,0.025543212890625
559.926,0.016998291015625
559.936,0.0048980712890625
559.946,-0.00238418579101562
559.956,-0.00767898559570312
559.966,-0.00551605224609375
559.976,0.02716064453125
559.986,0.103759765625
559.996,0.20751953125
560.006,0.306396484375
560.016,0.373779296875
560.026,0.392822265625
560.036,0.360107421875
560.046,0.283935546875
560.056,0.1722412109375
560.066,0.032501220703125
560.076,-0.1102294921875
560.085,-0.2191162109375
560.095,-0.2724609375
560.105,-0.26953125
560.115,-0.2166748046875
560.125,-0.130615234375
560.135,-0.0477294921875
560.145,0.000130534172058105
560.155,0.00431442260742188
560.165,-0.0278472900390625
560.175,-0.07513427734375
560.185,-0.107177734375
560.195,-0.1075439453125
560.205,-0.080322265625
560.215,-0.03546142578125
560.225,0.0159759521484375
560.235,0.06182861328125
560.245,0.094970703125
560.255,0.111083984375
560.265,0.1021728515625
560.275,0.069091796875
560.284,0.031524658203125
560.294,0.0129928588867188
560.304,0.025726318359375
560.314,0.0657958984375
560.324,0.1151123046875
560.334,0.1573486328125
560.344,0.1837158203125
560.354,0.1885986328125
560.364,0.1751708984375
560.374,0.15087890625
560.384,0.11932373046875
560.394,0.0914306640625
560.404,0.08349609375
560.414,0.09649658203125
560.424,0.1199951171875
560.434,0.1478271484375
560.444,0.1754150390625
560.454,0.1964111328125
560.464,0.2021484375
560.474,0.1820068359375
560.477,-0.049957275390625
560.487,-0.057220458984375
560.497,-0.058135986328125
560.507,-0.0635986328125
560.517,-0.08428955078125
560.527,-0.119140625
560.537,-0.15625
560.547,-0.18212890625
560.557,-0.1842041015625
560.567,-0.1556396484375
560.577,-0.09576416015625
560.587,-0.010650634765625
560.597,0.08050537109375
560.607,0.1522216796875
560.617,0.1893310546875
560.627,0.1885986328125
560.636,0.1563720703125
560.646,0.10699462890625
560.656,0.05560302734375
560.666,0.015777587890625
560.676,-0.0061187744140625
560.686,-0.0120468139648438
560.696,-0.00661468505859375
560.706,0.00474166870117188
560.716,0.0178375244140625
560.726,0.02764892578125
560.736,0.0279998779296875
560.746,0.0191802978515625
560.756,0.00661849975585938
560.766,-0.00232505798339844
560.776,0.000411033630371094
560.786,0.01861572265625
560.796,0.05340576171875
560.806,0.1026611328125
560.816,0.157958984375
560.826,0.2091064453125
560.835,0.2462158203125
560.845,0.25732421875
560.855,0.230712890625
560.865,0.162353515625
560.875,0.0665283203125
560.885,-0.030029296875
560.895,-0.09930419921875
560.905,-0.1224365234375
560.915,-0.0953369140625
560.925,-0.0271759033203125
560.935,0.0601806640625
560.945,0.1324462890625
560.955,0.15966796875
560.965,0.1361083984375
560.975,0.07220458984375
560.985,-0.0198516845703125
560.995,-0.12109375
561.005,-0.2027587890625
561.015,-0.2427978515625
561.025,-0.23486328125
561.029,0.105712890625
561.039,0.15771484375
561.049,0.1558837890625
561.059,0.10272216796875
561.069,0.0125274658203125
561.079,-0.09130859375
561.089,-0.1796875
561.099,-0.227783203125
561.109,-0.2242431640625
561.119,-0.1722412109375
561.129,-0.08758544921875
561.139,0.00615310668945312
561.149,0.087646484375
561.159,0.1473388671875
561.169,0.185791015625
561.179,0.205810546875
561.189,0.20751953125
561.197,0.1556396484375
561.207,0.11151123046875
561.217,0.0662841796875
561.227,0.02630615234375
561.237,-0.00647735595703125
561.247,-0.0312042236328125
561.257,-0.0479736328125
561.267,-0.05926513671875
561.277,-0.06512451171875
561.287,-0.060821533203125
561.297,-0.043701171875
561.307,-0.0141983032226562
561.317,0.03228759765625
561.327,0.100830078125
561.337,0.1827392578125
561.347,0.2568359375
561.357,0.301513671875
561.367,0.301025390625
561.377,0.249267578125
561.386,0.1561279296875
561.396,0.0501708984375
561.406,-0.038787841796875
561.416,-0.09381103515625
561.426,-0.1102294921875
561.436,-0.0882568359375
561.446,-0.032562255859375
561.456,0.0435791015625
561.466,0.1197509765625
561.476,0.175537109375
561.486,0.1976318359375
561.496,0.1849365234375
561.506,0.1478271484375
561.516,0.1029052734375
561.526,0.062744140625
561.536,0.033477783203125
561.546,0.015716552734375
561.556,0.00326347351074219
561.566,-0.0110015869140625
561.576,-0.029632568359375
561.585,-0.05279541015625
561.595,-0.07861328125
561.605,-0.10223388671875
561.615,-0.1143798828125
561.625,-0.10888671875
561.635,-0.0889892578125
561.645,-0.06201171875
561.655,-0.03582763671875
561.665,-0.0198974609375
561.675,-0.0208587646484375
561.685,-0.040679931640625
561.695,-0.0751953125
561.705,-0.1163330078125
561.715,-0.154296875
561.725,-0.17529296875
561.735,-0.1700439453125
561.745,-0.142578125
561.755,-0.1015625
561.765,-0.055816650390625
561.775,-0.01898193359375
561.778,-0.064453125
561.788,-0.09002685546875
561.798,-0.1043701171875
561.808,-0.10723876953125
561.818,-0.10675048828125
561.828,-0.10809326171875
561.838,-0.107666015625
561.848,-0.10333251953125
561.858,-0.0960693359375
561.868,-0.08428955078125
561.878,-0.0701904296875
561.888,-0.061614990234375
561.898,-0.061614990234375
561.908,-0.0701904296875
561.918,-0.09039306640625
561.928,-0.12091064453125
561.938,-0.15625
561.947,-0.2357177734375
561.957,-0.2646484375
561.967,-0.269775390625
561.977,-0.24462890625
561.987,-0.188720703125
561.997,-0.11407470703125
562.007,-0.04638671875
562.017,-0.00424575805664062
562.027,0.00662612915039062
562.037,-0.0212249755859375
562.047,-0.09136962890625
562.057,-0.184326171875
562.067,-0.262451171875
562.077,-0.294189453125
562.087,-0.26318359375
562.097,-0.1644287109375
562.107,-0.016510009765625
562.117,0.12890625
562.127,0.2161865234375
562.136,0.2197265625
562.146,0.142822265625
562.156,0.00896453857421875
562.166,-0.138671875
562.176,-0.255126953125
562.186,-0.32177734375
562.196,-0.353515625
562.206,-0.372314453125
562.216,-0.3837890625
562.226,-0.37744140625
562.236,-0.345458984375
562.246,-0.286865234375
562.256,-0.2010498046875
562.266,-0.0943603515625
562.276,0.00699996948242188
562.286,0.06561279296875
562.296,0.0640869140625
562.306,0.0155792236328125
562.316,-0.055877685546875
562.326,-0.1292724609375
562.335,-0.1868896484375
562.345,-0.218505859375
562.355,-0.2257080078125
562.365,-0.2169189453125
562.375,-0.2032470703125
562.385,-0.1976318359375
562.395,-0.2078857421875
562.405,-0.2296142578125
562.415,-0.255126953125
562.425,-0.280517578125
562.435,-0.305908203125
562.445,-0.33544921875
562.455,-0.3701171875
562.465,-0.394287109375
562.475,-0.38427734375
562.485,-0.33349609375
562.495,-0.255126953125
562.505,-0.171630859375
562.515,-0.107666015625
562.525,-0.08782958984375
562.528,-0.43310546875
562.538,-0.491455078125
562.548,-0.49951171875
562.558,-0.4697265625
562.568,-0.42529296875
562.578,-0.38232421875
562.588,-0.3388671875
562.598,-0.286865234375
562.608,-0.2308349609375
562.618,-0.1805419921875
562.628,-0.13525390625
562.638,-0.0870361328125
562.648,-0.034759521484375
562.658,0.0127792358398438
562.668,0.039337158203125
562.678,0.032440185546875
562.688,-0.000688076019287109
562.697,-0.0643310546875
562.707,-0.06829833984375
562.717,-0.052337646484375
562.727,-0.0321044921875
562.737,-0.0249176025390625
562.747,-0.041900634765625
562.757,-0.09027099609375
562.767,-0.169189453125
562.777,-0.265380859375
562.787,-0.355712890625
562.797,-0.41455078125
562.807,-0.42041015625
562.817,-0.36376953125
562.827,-0.2578125
562.837,-0.1339111328125
562.847,-0.0288543701171875
562.857,0.030364990234375
562.867,0.036712646484375
562.877,0.00341606140136719
562.886,-0.04986572265625
562.896,-0.1033935546875
562.906,-0.139404296875
562.916,-0.1475830078125
562.926,-0.126953125
562.936,-0.08685302734375
562.946,-0.045989990234375
562.956,-0.0214691162109375
562.966,-0.01666259765625
562.976,-0.0221405029296875
562.986,-0.0284423828125
562.996,-0.03558349609375
563.006,-0.05224609375
563.016,-0.089111328125
563.026,-0.1502685546875
563.036,-0.2325439453125
563.046,-0.3310546875
563.056,-0.4345703125
563.066,-0.52197265625
563.076,-0.57666015625
563.085,-0.587890625
563.095,-0.54931640625
563.105,-0.4609375
563.115,-0.3349609375
563.125,-0.1912841796875
563.135,-0.06298828125
563.145,0.00697708129882812
563.155,-0.0109176635742188
563.165,-0.1177978515625
563.175,-0.287353515625
563.185,-0.469970703125
563.195,-0.611328125
563.205,-0.67822265625
563.215,-0.66552734375
563.225,-0.591796875
563.235,-0.497802734375
563.245,-0.428466796875
563.255,-0.41064453125
563.265,-0.444091796875
563.275,-0.5087890625
563.278,-0.69921875
563.288,-0.74658203125
563.298,-0.79638671875
563.308,-0.828125
563.318,-0.83447265625
563.328,-0.81982421875
563.338,-0.78515625
563.348,-0.7255859375
563.358,-0.646484375
563.368,-0.576171875
563.378,-0.54638671875
563.388,-0.5625
563.398,-0.6064453125
563.408,-0.650390625
563.418,-0.67919921875
563.428,-0.69677734375
563.438,-0.701171875
563.447,-0.607421875
563.457,-0.50537109375
563.467,-0.3779296875
563.477,-0.2437744140625
563.487,-0.134033203125
563.497,-0.07135009765625
563.507,-0.06072998046875
563.517,-0.10015869140625
563.527,-0.1778564453125
563.537,-0.273681640625
563.547,-0.371337890625
563.557,-0.458251953125
563.567,-0.5224609375
563.577,-0.56787109375
563.587,-0.60302734375
563.597,-0.61962890625
563.607,-0.59716796875
563.617,-0.5302734375
563.627,-0.440673828125
563.636,-0.371826171875
563.646,-0.359130859375
563.656,-0.40478515625
563.666,-0.488525390625
563.676,-0.59326171875
563.686,-0.701171875
563.696,-0.7744140625
563.706,-0.7783203125
563.716,-0.7158203125
563.726,-0.6181640625
563.736,-0.51708984375
563.746,-0.43994140625
563.756,-0.40380859375
563.766,-0.401611328125
563.776,-0.416748046875
563.786,-0.442626953125
563.796,-0.4794921875
563.806,-0.5283203125
563.816,-0.59423828125
563.826,-0.666015625
563.835,-0.7099609375
563.845,-0.70068359375
563.855,-0.64404296875
563.865,-0.5537109375
563.875,-0.442626953125
563.885,-0.32861328125
563.895,-0.2310791015625
563.905,-0.156005859375
563.915,-0.10699462890625
563.925,-0.09210205078125
563.935,-0.10791015625
563.945,-0.1351318359375
563.955,-0.1551513671875
563.965,-0.1591796875
563.975,-0.148681640625
563.985,-0.130126953125
563.995,-0.1072998046875
564.005,-0.07757568359375
564.015,-0.04034423828125
564.025,-0.00344276428222656
564.029,-0.090087890625
564.039,-0.1778564453125
564.049,-0.27197265625
564.059,-0.355712890625
564.069,-0.412841796875
564.079,-0.4306640625
564.089,-0.40966796875
564.099,-0.363525390625
564.109,-0.30810546875
564.119,-0.25341796875
564.129,-0.2081298828125
564.139,-0.1806640625
564.149,-0.17578125
564.159,-0.1890869140625
564.169,-0.20947265625
564.179,-0.228515625
564.189,-0.244140625
564.197,-0.2486572265625
564.207,-0.2352294921875
564.217,-0.224609375
564.227,-0.224853515625
564.237,-0.2314453125
564.247,-0.234375
564.257,-0.2286376953125
564.267,-0.2127685546875
564.277,-0.1842041015625
564.287,-0.1427001953125
564.297,-0.09326171875
564.307,-0.046539306640625
564.317,-0.0138702392578125
564.327,-0.00271415710449219
564.337,-0.02557373046875
564.347,-0.10418701171875
564.357,-0.243896484375
564.367,-0.410400390625
564.377,-0.544921875
564.386,-0.60107421875
564.396,-0.568359375
564.406,-0.469970703125
564.416,-0.344970703125
564.426,-0.2230224609375
564.436,-0.11962890625
564.446,-0.051300048828125
564.456,-0.039306640625
564.466,-0.093017578125
564.476,-0.1978759765625
564.486,-0.318115234375
564.496,-0.40478515625
564.506,-0.4130859375
564.516,-0.32568359375
564.526,-0.1649169921875
564.536,0.00758743286132812
564.546,0.11859130859375
564.556,0.1246337890625
564.566,0.03253173828125
564.576,-0.11737060546875
564.584,-0.280517578125
564.594,-0.42529296875
564.604,-0.5322265625
564.614,-0.5859375
564.624,-0.5791015625
564.634,-0.52490234375
564.644,-0.44287109375
564.654,-0.344482421875
564.664,-0.234619140625
564.674,-0.1260986328125
564.684,-0.041534423828125
564.694,0.00914764404296875
564.704,0.03729248046875
564.714,0.056915283203125
564.724,0.07232666015625
564.734,0.08795166015625
564.744,0.11053466796875
564.754,0.135498046875
564.764,0.1470947265625
564.774,0.1322021484375
564.778,-0.2481689453125
564.788,-0.310546875
564.798,-0.356201171875
564.808,-0.374267578125
564.818,-0.351806640625
564.828,-0.28466796875
564.838,-0.17919921875
564.848,-0.056304931640625
564.858,0.047576904296875
564.868,0.09893798828125
564.878,0.0916748046875
564.888,0.04852294921875
564.898,-0.00035405158996582
564.908,-0.03643798828125
564.918,-0.05303955078125
564.928,-0.0489501953125
564.937,-0.02545166015625
564.947,0.011566162109375
564.957,0.04498291015625
564.967,0.05078125
564.977,0.0117721557617188
564.987,-0.07647705078125
564.997,-0.204345703125
565.007,-0.342041015625
565.017,-0.446044921875
565.027,-0.485107421875
565.037,-0.453125
565.047,-0.3662109375
565.057,-0.255859375
565.067,-0.15234375
565.077,-0.06793212890625
565.087,-0.00067901611328125
565.097,0.046051025390625
565.107,0.05902099609375
565.117,0.027801513671875
565.127,-0.044891357421875
565.136,-0.1485595703125
565.146,-0.2744140625
565.156,-0.413330078125
565.166,-0.5498046875
565.176,-0.66064453125
565.186,-0.720703125
565.196,-0.70556640625
565.206,-0.603515625
565.216,-0.43408203125
565.226,-0.2410888671875
565.236,-0.0704345703125
565.246,0.047943115234375
565.256,0.1046142578125
565.266,0.1112060546875
565.276,0.0867919921875
565.286,0.034912109375
565.296,-0.049652099609375
565.306,-0.1553955078125
565.316,-0.254150390625
565.326,-0.317626953125
565.334,-0.324951171875
565.344,-0.2734375
565.354,-0.18896484375
565.364,-0.114990234375
565.374,-0.086669921875
565.384,-0.11126708984375
565.394,-0.1641845703125
565.404,-0.2039794921875
565.414,-0.203857421875
565.424,-0.169189453125
565.434,-0.1231689453125
565.444,-0.0792236328125
565.454,-0.0360107421875
565.464,0.00725936889648438
565.474,0.037109375
565.484,0.031280517578125
565.494,-0.0211181640625
565.504,-0.1055908203125
565.514,-0.1890869140625
565.524,-0.24609375
565.528,-0.3291015625
565.538,-0.27587890625
565.548,-0.17578125
565.558,-0.045928955078125
565.568,0.07867431640625
565.578,0.15283203125
565.588,0.1463623046875
565.598,0.06304931640625
565.608,-0.07012939453125
565.618,-0.21728515625
565.628,-0.3486328125
565.638,-0.451416015625
565.648,-0.52392578125
565.658,-0.56591796875
565.668,-0.57763671875
565.678,-0.56103515625
565.687,-0.517578125
565.697,-0.447509765625
565.707,-0.345947265625
565.717,-0.2120361328125
565.727,-0.060211181640625
565.737,0.08843994140625
565.747,0.23095703125
565.757,0.35400390625
565.767,0.3896484375
565.777,0.265380859375
565.787,0.0112228393554688
565.797,-0.23095703125
565.807,-0.349365234375
565.817,-0.3935546875
565.827,-0.477294921875
565.837,-0.58447265625
565.847,-0.58056640625
565.857,-0.387939453125
565.867,-0.072265625
565.877,0.2232666015625
565.886,0.39013671875
565.896,0.419189453125
565.906,0.37353515625
565.916,0.30615234375
565.926,0.226318359375
565.936,0.164306640625
565.946,0.2108154296875
565.956,0.41845703125
565.966,0.689453125
565.976,0.84228515625
565.986,0.78173828125
565.996,0.5830078125
566.006,0.417236328125
566.016,0.37548828125
566.026,0.378173828125
566.036,0.313232421875
566.046,0.2047119140625
566.056,0.1666259765625
566.066,0.2354736328125
566.076,0.315185546875
566.084,0.28466796875
566.094,0.11700439453125
566.104,-0.10772705078125
566.114,-0.3095703125
566.124,-0.50048828125
566.134,-0.72412109375
566.144,-0.9404296875
566.154,-1.04296875
566.164,-0.97265625
566.174,-0.763671875
566.184,-0.4833984375
566.194,-0.1925048828125
566.204,0.048431396484375
566.214,0.1458740234375
566.224,0.0181732177734375
566.234,-0.288818359375
566.244,-0.6162109375
566.254,-0.8603515625
566.264,-1.0283203125
566.274,-1.12890625
566.278,-0.08050537109375
566.288,0.04388427734375
566.298,0.06134033203125
566.308,0.0056915283203125
566.318,-0.07421875
566.328,-0.148193359375
566.338,-0.2164306640625
566.348,-0.2861328125
566.358,-0.360595703125
566.368,-0.440673828125
566.378,-0.51220703125
566.388,-0.55419921875
566.398,-0.55712890625
566.408,-0.5126953125
566.418,-0.413330078125
566.428,-0.277587890625
566.437,-0.1463623046875
566.447,-0.060699462890625
566.457,-0.047393798828125
566.467,-0.1063232421875
566.477,-0.206787109375
566.487,-0.319091796875
566.497,-0.4296875
566.507,-0.51611328125
566.517,-0.55322265625
566.527,-0.52783203125
566.537,-0.4365234375
566.547,-0.2958984375
566.557,-0.1524658203125
566.567,-0.053863525390625
566.577,-0.0303497314453125
566.587,-0.10540771484375
566.597,-0.29833984375
566.607,-0.59814453125
566.617,-0.93505859375
566.627,-1.20703125
566.636,-1.353515625
566.646,-1.3603515625
566.656,-1.24609375
566.666,-1.0400390625
566.676,-0.77587890625
566.686,-0.48046875
566.696,-0.196533203125
566.706,0.0274505615234375
566.716,0.162109375
566.726,0.2069091796875
566.736,0.180908203125
566.746,0.11383056640625
566.756,0.039947509765625
566.766,-0.0109024047851562
566.776,-0.0217742919921875
566.786,0.00123977661132812
566.796,0.028656005859375
566.806,0.03912353515625
566.816,0.036224365234375
566.826,0.032318115234375
566.834,0.038177490234375
566.844,0.05035400390625
566.854,0.04901123046875
566.864,0.02484130859375
566.874,-0.0124740600585938
566.884,-0.05438232421875
566.894,-0.1019287109375
566.904,-0.15673828125
566.914,-0.213623046875
566.924,-0.2607421875
566.934,-0.290771484375
566.944,-0.310546875
566.954,-0.333740234375
566.964,-0.36572265625
566.974,-0.403564453125
566.984,-0.440673828125
566.994,-0.473388671875
567.004,-0.5009765625
567.014,-0.5185546875
567.024,-0.513671875
567.028,-0.295654296875
567.038,-0.276611328125
567.048,-0.265380859375
567.058,-0.253662109375
567.068,-0.2347412109375
567.078,-0.208984375
567.088,-0.1790771484375
567.098,-0.149658203125
567.108,-0.1282958984375
567.118,-0.11553955078125
567.128,-0.10284423828125
567.138,-0.08319091796875
567.148,-0.05194091796875
567.158,-0.0074005126953125
567.168,0.047760009765625
567.178,0.10943603515625
567.187,0.168701171875
567.197,0.208251953125
567.207,0.2064208984375
567.217,0.1414794921875
567.227,0.00140190124511719
567.237,-0.2069091796875
567.247,-0.454833984375
567.257,-0.69921875
567.267,-0.90234375
567.277,-1.0556640625
567.287,-1.171875
567.297,-1.2548828125
567.307,-1.3017578125
567.317,-1.310546875
567.327,-1.291015625
567.337,-1.244140625
567.347,-1.15234375
567.357,-1.0126953125
567.367,-0.8486328125
567.377,-0.68310546875
567.386,-0.53125
567.396,-0.414306640625
567.406,-0.360107421875
567.416,-0.381103515625
567.426,-0.471923828125
567.436,-0.61083984375
567.446,-0.7587890625
567.456,-0.87353515625
567.466,-0.94140625
567.476,-0.978515625
567.486,-1.0009765625
567.496,-1.0078125
567.506,-0.9853515625
567.516,-0.93359375
567.526,-0.85595703125
567.536,-0.7626953125
567.546,-0.67138671875
567.556,-0.6015625
567.566,-0.56689453125
567.576,-0.57080078125
567.584,-0.59619140625
567.594,-0.6240234375
567.604,-0.65380859375
567.614,-0.701171875
567.624,-0.7802734375
567.634,-0.875
567.644,-0.93798828125
567.654,-0.953125
567.664,-0.97021484375
567.674,-1.05859375
567.684,-1.23828125
567.694,-1.451171875
567.704,-1.5966796875
567.714,-1.6123046875
567.724,-1.517578125
567.734,-1.375
567.744,-1.2412109375
567.754,-1.150390625
567.764,-1.1123046875
567.774,-1.115234375
567.778,-1.185546875
567.788,-1.16796875
567.798,-1.1435546875
567.808,-1.11328125
567.818,-1.0869140625
567.828,-1.064453125
567.838,-1.0419921875
567.848,-1.0166015625
567.858,-0.99462890625
567.868,-0.986328125
567.878,-0.99853515625
567.888,-1.0234375
567.898,-1.046875
567.908,-1.052734375
567.918,-1.037109375
567.928,-1.001953125
567.937,-0.95751953125
567.947,-0.91845703125
567.957,-0.89404296875
567.967,-0.88623046875
567.977,-0.892578125
567.987,-0.91064453125
567.997,-0.935546875
568.007,-0.9619140625
568.017,-0.986328125
568.027,-1.0009765625
568.037,-0.9970703125
568.047,-0.9765625
568.057,-0.947265625
568.067,-0.91455078125
568.077,-0.8828125
568.087,-0.85693359375
568.097,-0.8447265625
568.107,-0.8505859375
568.117,-0.8720703125
568.127,-0.9013671875
568.136,-0.9326171875
568.146,-0.96435546875
568.156,-0.99853515625
568.166,-1.033203125
568.176,-1.0625
568.186,-1.08203125
568.196,-1.0869140625
568.206,-1.08203125
568.216,-1.068359375
568.226,-1.048828125
568.236,-1.02734375
568.246,-1.0087890625
568.256,-0.99462890625
568.266,-0.9814453125
568.276,-0.96875
568.286,-0.962890625
568.296,-0.96923828125
568.306,-0.98876953125
568.316,-1.0185546875
568.326,-1.0498046875
568.334,-1.06640625
568.344,-1.056640625
568.354,-1.021484375
568.364,-0.97314453125
568.374,-0.92236328125
568.384,-0.8798828125
568.394,-0.85205078125
568.404,-0.8388671875
568.414,-0.83984375
568.424,-0.85107421875
568.434,-0.87060546875
568.444,-0.89599609375
568.454,-0.9189453125
568.464,-0.9326171875
568.474,-0.93359375
568.484,-0.91943359375
568.494,-0.8896484375
568.504,-0.85107421875
568.514,-0.814453125
568.524,-0.79541015625
568.528,-0.93017578125
568.538,-0.9140625
568.548,-0.8681640625
568.558,-0.80029296875
568.568,-0.71826171875
568.578,-0.63720703125
568.588,-0.580078125
568.598,-0.5615234375
568.608,-0.58154296875
568.618,-0.63037109375
568.628,-0.69677734375
568.638,-0.759765625
568.648,-0.79833984375
568.658,-0.8056640625
568.668,-0.7890625
568.678,-0.75732421875
568.687,-0.71728515625
568.697,-0.67919921875
568.707,-0.6494140625
568.717,-0.62451171875
568.727,-0.60205078125
568.737,-0.58544921875
568.747,-0.57470703125
568.757,-0.564453125
568.767,-0.55517578125
568.777,-0.556640625
568.787,-0.57080078125
568.797,-0.5849609375
568.807,-0.58935546875
568.817,-0.58984375
568.827,-0.603515625
568.837,-0.638671875
568.847,-0.68505859375
568.857,-0.7216796875
568.867,-0.734375
568.877,-0.72509765625
568.885,-0.7001953125
568.895,-0.6708984375
568.905,-0.646484375
568.915,-0.634765625
568.925,-0.63916015625
568.935,-0.6484375
568.945,-0.64306640625
568.955,-0.6123046875
568.965,-0.56103515625
568.975,-0.5087890625
568.985,-0.474365234375
568.995,-0.465087890625
569.005,-0.472900390625
569.015,-0.48046875
569.025,-0.474365234375
569.035,-0.4501953125
569.045,-0.403076171875
569.055,-0.32861328125
569.065,-0.237548828125
569.075,-0.1607666015625
569.084,-0.1290283203125
569.094,-0.1544189453125
569.104,-0.2281494140625
569.114,-0.327392578125
569.124,-0.424560546875
569.134,-0.496826171875
569.144,-0.53515625
569.154,-0.548828125
569.164,-0.5576171875
569.174,-0.57958984375
569.184,-0.62451171875
569.194,-0.685546875
569.204,-0.73388671875
569.214,-0.7529296875
569.224,-0.748046875
569.234,-0.73388671875
569.244,-0.73095703125
569.254,-0.75732421875
569.264,-0.8203125
569.274,-0.90478515625
569.278,-0.401123046875
569.288,-0.2371826171875
569.298,-0.15185546875
569.308,-0.125
569.318,-0.11822509765625
569.328,-0.0986328125
569.338,-0.058563232421875
569.348,-0.02392578125
569.358,-0.035797119140625
569.368,-0.1080322265625
569.378,-0.2056884765625
569.388,-0.276123046875
569.398,-0.2939453125
569.408,-0.26513671875
569.418,-0.2000732421875
569.428,-0.1019287109375
569.437,0.01837158203125
569.447,0.11968994140625
569.457,0.1488037109375
569.467,0.09210205078125
569.477,-0.00272178649902344
569.487,-0.06640625
569.497,-0.069091796875
569.507,-0.042510986328125
569.517,-0.041351318359375
569.527,-0.07952880859375
569.537,-0.115478515625
569.547,-0.1019287109375
569.557,-0.032501220703125
569.567,0.05242919921875
569.577,0.09539794921875
569.587,0.06561279296875
569.597,-0.01898193359375
569.607,-0.120849609375
569.617,-0.2220458984375
569.627,-0.316650390625
569.635,-0.380615234375
569.645,-0.37841796875
569.655,-0.301513671875
569.665,-0.1781005859375
569.675,-0.040863037109375
569.685,0.104248046875
569.695,0.2607421875
569.705,0.39990234375
569.715,0.45849609375
569.725,0.392578125
569.735,0.2275390625
569.745,0.037567138671875
569.755,-0.1165771484375
569.765,-0.22412109375
569.775,-0.311279296875
569.785,-0.4013671875
569.795,-0.47998046875
569.805,-0.5126953125
569.815,-0.490234375
569.825,-0.421142578125
569.834,-0.299072265625
569.844,-0.12451171875
569.854,0.05889892578125
569.864,0.1832275390625
569.874,0.2198486328125
569.884,0.2005615234375
569.894,0.17041015625
569.904,0.13525390625
569.914,0.071533203125
569.924,-0.0240020751953125
569.934,-0.115478515625
569.944,-0.1578369140625
569.954,-0.13330078125
569.964,-0.057373046875
569.974,0.041778564453125
569.984,0.134033203125
569.994,0.1915283203125
570.004,0.2017822265625
570.014,0.173095703125
570.024,0.11572265625
570.028,-0.27294921875
570.038,-0.248046875
570.048,-0.1844482421875
570.058,-0.09759521484375
570.068,-0.00673294067382812
570.078,0.06927490234375
570.088,0.118408203125
570.098,0.134765625
570.108,0.1207275390625
570.118,0.0887451171875
570.128,0.0506591796875
570.138,0.00221443176269531
570.148,-0.064208984375
570.158,-0.135498046875
570.168,-0.1861572265625
570.178,-0.2052001953125
570.187,-0.2022705078125
570.197,-0.1856689453125
570.207,-0.1541748046875
570.217,-0.11273193359375
570.227,-0.07562255859375
570.237,-0.05059814453125
570.247,-0.0355224609375
570.257,-0.029205322265625
570.267,-0.03125
570.277,-0.03656005859375
570.287,-0.038543701171875
570.297,-0.038299560546875
570.307,-0.04412841796875
570.317,-0.058807373046875
570.327,-0.07861328125
570.337,-0.10260009765625
570.347,-0.127685546875
570.357,-0.1419677734375
570.367,-0.1365966796875
570.377,-0.112060546875
570.385,-0.0709228515625
570.395,-0.018585205078125
570.405,0.03192138671875
570.415,0.06451416015625
570.425,0.0701904296875
570.435,0.0517578125
570.445,0.017242431640625
570.455,-0.025360107421875
570.465,-0.0645751953125
570.475,-0.08843994140625
570.485,-0.09283447265625
570.495,-0.07586669921875
570.505,-0.0335693359375
570.515,0.026519775390625
570.525,0.0804443359375
570.535,0.1092529296875
570.545,0.1134033203125
570.555,0.09759521484375
570.565,0.0604248046875
570.575,0.011138916015625
570.584,-0.031341552734375
570.594,-0.0621337890625
570.604,-0.0872802734375
570.614,-0.10498046875
570.624,-0.11126708984375
570.634,-0.11199951171875
570.644,-0.11309814453125
570.654,-0.11199951171875
570.664,-0.10516357421875
570.674,-0.0948486328125
570.684,-0.0797119140625
570.694,-0.0523681640625
570.704,-0.0200347900390625
570.714,-0.00423431396484375
570.724,-0.00844573974609375
570.734,-0.0199737548828125
570.744,-0.038909912109375
570.754,-0.06829833984375
570.764,-0.096923828125
570.774,-0.119140625
570.777,-0.1129150390625
570.787,-0.06536865234375
570.797,-0.0243682861328125
570.807,0.00382041931152344
570.817,0.0133819580078125
570.827,0.000621318817138672
570.837,-0.023834228515625
570.847,-0.04815673828125
570.857,-0.07073974609375
570.867,-0.08758544921875
570.877,-0.092041015625
570.887,-0.08563232421875
570.897,-0.07562255859375
570.907,-0.06585693359375
570.917,-0.05169677734375
570.927,-0.0244293212890625
570.937,0.01593017578125
570.947,0.07196044921875
570.957,0.06256103515625
570.967,0.032928466796875
570.977,-0.00633621215820312
570.987,-0.0457763671875
570.997,-0.0748291015625
571.007,-0.0860595703125
571.017,-0.08026123046875
571.027,-0.062164306640625
571.037,-0.036590576171875
571.047,-0.00803375244140625
571.057,0.021209716796875
571.067,0.048858642578125
571.077,0.06842041015625
571.087,0.07537841796875
571.097,0.07421875
571.107,0.0726318359375
571.117,0.07073974609375
571.127,0.06268310546875
571.135,0.04888916015625
571.145,0.03607177734375
571.155,0.0280303955078125
571.165,0.0220947265625
571.175,0.010589599609375
571.185,-0.0103912353515625
571.195,-0.031982421875
571.205,-0.041229248046875
571.215,-0.037567138671875
571.225,-0.031768798828125
571.235,-0.032012939453125
571.245,-0.0391845703125
571.255,-0.05010986328125
571.265,-0.059661865234375
571.275,-0.0662841796875
571.285,-0.0748291015625
571.295,-0.086181640625
571.305,-0.08819580078125
571.315,-0.06585693359375
571.325,-0.0183563232421875
571.334,0.0382080078125
571.344,0.08233642578125
571.354,0.10430908203125
571.364,0.11126708984375
571.374,0.11407470703125
571.384,0.1143798828125
571.394,0.105224609375
571.404,0.0765380859375
571.414,0.0203857421875
571.424,-0.06317138671875
571.434,-0.1624755859375
571.444,-0.257080078125
571.454,-0.32763671875
571.464,-0.36083984375
571.474,-0.349853515625
571.484,-0.295654296875
571.494,-0.212646484375
571.504,-0.1236572265625
571.514,-0.05126953125
571.524,-0.0152511596679688
571.528,-0.28466796875
571.538,-0.308837890625
571.548,-0.2939453125
571.558,-0.24853515625
571.568,-0.1961669921875
571.578,-0.16064453125
571.588,-0.1549072265625
571.598,-0.18310546875
571.608,-0.244384765625
571.618,-0.333251953125
571.628,-0.447265625
571.638,-0.58642578125
571.648,-0.73291015625
571.658,-0.84716796875
571.668,-0.90576171875
571.678,-0.931640625
571.687,-0.9736328125
571.697,-1.0576171875
571.707,-1.1611328125
571.717,-1.236328125
571.727,-1.263671875
571.737,-1.2451171875
571.747,-1.1904296875
571.757,-1.1123046875
571.767,-1.013671875
571.777,-0.904296875
571.787,-0.8056640625
571.797,-0.73046875
571.807,-0.6767578125
571.817,-0.64404296875
571.827,-0.63134765625
571.837,-0.63671875
571.847,-0.671875
571.857,-0.74169921875
571.867,-0.81982421875
571.877,-0.8759765625
571.885,-0.90869140625
571.895,-0.92626953125
571.905,-0.9208984375
571.915,-0.890625
571.925,-0.86083984375
571.935,-0.86083984375
571.945,-0.88720703125
571.955,-0.91064453125
571.965,-0.92578125
571.975,-0.95458984375
571.985,-1.0029296875
571.995,-1.0341796875
572.005,-1.01171875
572.015,-0.94580078125
572.025,-0.8916015625
572.035,-0.873046875
572.045,-0.8681640625
572.055,-0.85546875
572.065,-0.84130859375
572.075,-0.82861328125
572.084,-0.798828125
572.094,-0.7392578125
572.104,-0.66845703125
572.114,-0.6064453125
572.124,-0.544921875
572.134,-0.470458984375
572.144,-0.400146484375
572.154,-0.366455078125
572.164,-0.3701171875
572.174,-0.382080078125
572.184,-0.387451171875
572.194,-0.401123046875
572.204,-0.438720703125
572.214,-0.4833984375
572.224,-0.498779296875
572.234,-0.4794921875
572.244,-0.46484375
572.254,-0.49267578125
572.264,-0.55224609375
572.274,-0.603515625
572.277,-0.76953125
572.287,-0.7880859375
572.297,-0.7451171875
572.307,-0.6689453125
572.317,-0.60693359375
572.327,-0.58251953125
572.337,-0.56494140625
572.347,-0.4990234375
572.357,-0.3681640625
572.367,-0.2230224609375
572.377,-0.1435546875
572.387,-0.17578125
572.397,-0.299072265625
572.407,-0.44775390625
572.417,-0.56005859375
572.427,-0.6162109375
572.437,-0.6357421875
572.447,-0.6845703125
572.457,-0.72412109375
572.467,-0.74609375
572.477,-0.7216796875
572.487,-0.62353515625
572.497,-0.440185546875
572.507,-0.1893310546875
572.517,0.081787109375
572.527,0.316162109375
572.537,0.47265625
572.547,0.53857421875
572.557,0.53125
572.567,0.48046875
572.577,0.411865234375
572.587,0.338623046875
572.597,0.267822265625
572.607,0.2003173828125
572.617,0.1292724609375
572.627,0.049102783203125
572.635,-0.0333251953125
572.645,-0.10400390625
572.655,-0.1502685546875
572.665,-0.167724609375
572.675,-0.1641845703125
572.685,-0.1507568359375
572.695,-0.124267578125
572.705,-0.0733642578125
572.715,0.00192070007324219
572.725,0.08575439453125
572.735,0.1627197265625
572.745,0.2354736328125
572.755,0.309814453125
572.765,0.363525390625
572.775,0.3603515625
572.785,0.2880859375
572.795,0.1640625
572.805,0.020172119140625
572.815,-0.10919189453125
572.825,-0.1990966796875
572.834,-0.2410888671875
572.844,-0.2373046875
572.854,-0.1978759765625
572.864,-0.1412353515625
572.874,-0.08709716796875
572.884,-0.045745849609375
572.894,-0.0140533447265625
572.904,0.013214111328125
572.914,0.023345947265625
572.924,-0.00364112854003906
572.934,-0.060302734375
572.944,-0.1083984375
572.954,-0.11212158203125
572.964,-0.05914306640625
572.974,0.04071044921875
572.984,0.158203125
572.994,0.25244140625
573.004,0.287841796875
573.014,0.25
573.024,0.1522216796875
573.028,-0.35498046875
573.038,-0.328369140625
573.048,-0.24560546875
573.058,-0.1290283203125
573.068,0.00106716156005859
573.078,0.12310791015625
573.088,0.20703125
573.098,0.2301025390625
573.108,0.1998291015625
573.118,0.1505126953125
573.128,0.118408203125
573.138,0.12164306640625
573.148,0.158935546875
573.158,0.2177734375
573.168,0.279296875
573.178,0.32080078125
573.186,0.32666015625
573.196,0.300048828125
573.206,0.254150390625
573.216,0.1990966796875
573.226,0.1361083984375
573.236,0.060150146484375
573.246,-0.031707763671875
573.256,-0.1326904296875
573.266,-0.23046875
573.276,-0.306884765625
573.286,-0.3349609375
573.296,-0.29345703125
573.306,-0.184326171875
573.316,-0.031341552734375
573.326,0.127685546875
573.336,0.25146484375
573.346,0.30419921875
573.356,0.270751953125
573.366,0.1724853515625
573.376,0.04632568359375
573.385,-0.07696533203125
573.395,-0.1663818359375
573.405,-0.1943359375
573.415,-0.1593017578125
573.425,-0.0804443359375
573.435,0.023712158203125
573.445,0.1304931640625
573.455,0.2117919921875
573.465,0.25048828125
573.475,0.2445068359375
573.485,0.196533203125
573.495,0.1168212890625
573.505,0.0318603515625
573.515,-0.0300445556640625
573.525,-0.053070068359375
573.535,-0.034271240234375
573.545,0.0154800415039062
573.555,0.07470703125
573.565,0.12249755859375
573.575,0.1461181640625
573.584,0.142333984375
573.594,0.11663818359375
573.604,0.07598876953125
573.614,0.02734375
573.624,-0.0203094482421875
573.634,-0.06317138671875
573.644,-0.10223388671875
573.654,-0.1307373046875
573.664,-0.1387939453125
573.674,-0.1199951171875
573.684,-0.0706787109375
573.694,-0.00135326385498047
573.704,0.0626220703125
573.714,0.09857177734375
573.724,0.0955810546875
573.734,0.055389404296875
573.744,-0.00589370727539062
573.754,-0.064453125
573.764,-0.1025390625
573.774,-0.115478515625
573.778,-0.030242919921875
573.788,-0.03204345703125
573.798,-0.041107177734375
573.808,-0.05242919921875
573.818,-0.06390380859375
573.828,-0.072998046875
573.838,-0.07562255859375
573.848,-0.080078125
573.858,-0.12139892578125
573.868,-0.239013671875
573.878,-0.419921875
573.888,-0.56982421875
573.898,-0.5693359375
573.908,-0.39306640625
573.918,-0.1578369140625
573.928,-0.023895263671875
573.936,-0.03466796875
573.946,-0.0714111328125
573.956,0.0181121826171875
573.966,0.2354736328125
573.976,0.402587890625
573.986,0.330810546875
573.996,0.000881195068359375
574.006,-0.413330078125
574.016,-0.65283203125
574.026,-0.55029296875
574.036,-0.1536865234375
574.046,0.322021484375
574.056,0.662109375
574.066,0.7900390625
574.076,0.81396484375
574.086,0.90869140625
574.096,1.1181640625
574.106,1.2958984375
574.116,1.2490234375
574.126,0.90869140625
574.135,0.3671875
574.145,-0.1826171875
574.155,-0.53369140625
574.165,-0.54833984375
574.175,-0.234619140625
574.185,0.2449951171875
574.195,0.65869140625
574.205,0.830078125
574.215,0.72412109375
574.225,0.441650390625
574.235,0.1549072265625
574.245,0.0231781005859375
574.255,0.10211181640625
574.265,0.30810546875
574.275,0.48095703125
574.285,0.477294921875
574.295,0.2447509765625
574.305,-0.1580810546875
574.315,-0.611328125
574.325,-0.99609375
574.334,-1.212890625
574.344,-1.2060546875
574.354,-0.98095703125
574.364,-0.60986328125
574.374,-0.1937255859375
574.384,0.1771240234375
574.394,0.43701171875
574.404,0.54541015625
574.414,0.489990234375
574.424,0.29296875
574.434,0.0135955810546875
574.444,-0.26904296875
574.454,-0.48291015625
574.464,-0.58251953125
574.474,-0.55078125
574.484,-0.396240234375
574.494,-0.15234375
574.504,0.13623046875
574.514,0.43212890625
574.524,0.70703125
574.528,0.69482421875
574.538,0.33251953125
574.548,-0.10833740234375
574.558,-0.5751953125
574.568,-0.9990234375
574.578,-1.3251953125
574.588,-1.5361328125
574.598,-1.634765625
574.608,-1.6435546875
574.618,-1.6025390625
574.628,-1.546875
574.638,-1.4853515625
574.648,-1.4208984375
574.658,-1.353515625
574.668,-1.2783203125
574.678,-1.177734375
574.686,-1.01953125
574.696,-0.76611328125
574.706,-0.3935546875
574.716,0.08660888671875
574.726,0.6220703125
574.736,1.13671875
574.746,1.5537109375
574.756,1.80859375
574.766,1.859375
574.776,1.7041015625
574.786,1.390625
574.796,0.98974609375
574.806,0.576171875
574.816,0.220458984375
574.826,-0.0295867919921875
574.836,-0.161376953125
574.846,-0.19091796875
574.856,-0.1453857421875
574.866,-0.05364990234375
574.876,0.053009033203125
574.885,0.1412353515625
574.895,0.185302734375
574.905,0.17431640625
574.915,0.1116943359375
574.925,0.01666259765625
574.935,-0.07855224609375
574.945,-0.1458740234375
574.955,-0.1712646484375
574.965,-0.1513671875
574.975,-0.09637451171875
574.985,-0.0273895263671875
574.995,0.03912353515625
575.005,0.09130859375
575.015,0.1136474609375
575.025,0.09759521484375
575.035,0.0478515625
575.045,-0.0261077880859375
575.055,-0.10986328125
575.065,-0.18212890625
575.075,-0.2276611328125
575.084,-0.244873046875
575.094,-0.2303466796875
575.104,-0.174072265625
575.114,-0.0782470703125
575.124,0.03778076171875
575.134,0.149169921875
575.144,0.229736328125
575.154,0.254638671875
575.164,0.217529296875
575.174,0.13427734375
575.184,0.0246124267578125
575.194,-0.09619140625
575.204,-0.2060546875
575.214,-0.28076171875
575.224,-0.3154296875
575.234,-0.317626953125
575.244,-0.28759765625
575.254,-0.2236328125
575.264,-0.1395263671875
575.274,-0.0533447265625
575.276,0.1414794921875
575.286,0.1485595703125
575.296,0.1483154296875
575.306,0.13916015625
575.316,0.1297607421875
575.326,0.12078857421875
575.336,0.09613037109375
575.346,0.04888916015625
575.356,-0.0103759765625
575.366,-0.07342529296875
575.376,-0.1334228515625
575.386,-0.1732177734375
575.396,-0.1802978515625
575.406,-0.157958984375
575.416,-0.11260986328125
575.426,-0.047515869140625
575.436,0.0245513916015625
575.446,0.11138916015625
575.456,0.11962890625
575.466,0.10595703125
575.476,0.058929443359375
575.486,-0.026214599609375
575.496,-0.1387939453125
575.506,-0.263427734375
575.516,-0.382568359375
575.526,-0.46875
575.536,-0.490234375
575.546,-0.433349609375
575.556,-0.312744140625
575.566,-0.1602783203125
575.576,-0.0130844116210938
575.586,0.08905029296875
575.596,0.1251220703125
575.606,0.1092529296875
575.616,0.06671142578125
575.626,0.0084686279296875
575.635,-0.059539794921875
575.645,-0.12384033203125
575.655,-0.1727294921875
575.665,-0.205078125
575.675,-0.2218017578125
575.685,-0.2205810546875
575.695,-0.20556640625
575.705,-0.1884765625
575.715,-0.1693115234375
575.725,-0.137939453125
575.735,-0.0966796875
575.745,-0.05767822265625
575.755,-0.026031494140625
575.765,-0.007171630859375
575.775,-0.01934814453125
575.785,-0.07208251953125
575.795,-0.1480712890625
575.805,-0.2275390625
575.815,-0.3046875
575.825,-0.369384765625
575.834,-0.40625
575.844,-0.416748046875
575.854,-0.4150390625
575.864,-0.41015625
575.874,-0.40771484375
575.884,-0.412841796875
575.894,-0.41357421875
575.904,-0.383544921875
575.914,-0.310546875
575.924,-0.2061767578125
575.934,-0.09075927734375
575.944,0.00919342041015625
575.954,0.0655517578125
575.964,0.07525634765625
575.974,0.0615234375
575.984,0.04058837890625
575.994,0.0117263793945312
576.004,-0.0257720947265625
576.014,-0.07452392578125
576.024,-0.1534423828125
576.028,-0.64404296875
576.038,-0.546875
576.048,-0.38623046875
576.058,-0.19921875
576.068,-0.0308380126953125
576.078,0.09771728515625
576.088,0.1904296875
576.098,0.24755859375
576.108,0.265380859375
576.118,0.2529296875
576.128,0.2227783203125
576.138,0.184326171875
576.148,0.1651611328125
576.158,0.19970703125
576.168,0.278076171875
576.178,0.3447265625
576.186,0.354736328125
576.196,0.298095703125
576.206,0.1827392578125
576.216,0.01812744140625
576.226,-0.1905517578125
576.236,-0.436279296875
576.246,-0.69091796875
576.256,-0.9013671875
576.266,-1.0126953125
576.276,-0.9990234375
576.286,-0.8740234375
576.296,-0.6796875
576.306,-0.45654296875
576.316,-0.2431640625
576.326,-0.0782470703125
576.336,0.0218505859375
576.346,0.071533203125
576.356,0.09259033203125
576.366,0.0992431640625
576.376,0.09869384765625
576.385,0.08172607421875
576.395,0.0283966064453125
576.405,-0.060333251953125
576.415,-0.146484375
576.425,-0.1884765625
576.435,-0.189697265625
576.445,-0.1976318359375
576.455,-0.243896484375
576.465,-0.310791015625
576.475,-0.36572265625
576.485,-0.394287109375
576.495,-0.390625
576.505,-0.345458984375
576.515,-0.2607421875
576.525,-0.1544189453125
576.535,-0.0479736328125
576.545,0.042449951171875
576.555,0.103759765625
576.565,0.1329345703125
576.575,0.14306640625
576.584,0.145751953125
576.594,0.1361083984375
576.604,0.10552978515625
576.614,0.050506591796875
576.624,-0.033599853515625
576.634,-0.156494140625
576.644,-0.31787109375
576.654,-0.482421875
576.664,-0.5888671875
576.674,-0.60009765625
576.684,-0.52587890625
576.694,-0.39208984375
576.704,-0.223876953125
576.714,-0.05560302734375
576.724,0.07208251953125
576.734,0.135498046875
576.744,0.1358642578125
576.754,0.08465576171875
576.764,-0.001739501953125
576.774,-0.091064453125
576.777,-0.12286376953125
576.787,-0.126953125
576.797,-0.15625
576.807,-0.21435546875
576.817,-0.296630859375
576.827,-0.3857421875
576.837,-0.460205078125
576.847,-0.505859375
576.857,-0.50732421875
576.867,-0.44775390625
576.877,-0.322021484375
576.887,-0.1566162109375
576.897,0.000591754913330078
576.907,0.107177734375
576.917,0.1453857421875
576.927,0.11895751953125
576.937,0.045440673828125
576.946,-0.157958984375
576.956,-0.271484375
576.966,-0.3955078125
576.976,-0.53662109375
576.986,-0.697265625
576.996,-0.8671875
577.006,-1.0263671875
577.016,-1.158203125
577.026,-1.2490234375
577.036,-1.2998046875
577.046,-1.3203125
577.056,-1.310546875
577.066,-1.2724609375
577.076,-1.2109375
577.086,-1.1279296875
577.096,-1.0185546875
577.106,-0.91064453125
577.116,-0.85205078125
577.126,-0.873046875
577.135,-0.95849609375
577.145,-1.0546875
577.155,-1.1181640625
577.165,-1.150390625
577.175,-1.1865234375
577.185,-1.2451171875
577.195,-1.3173828125
577.205,-1.369140625
577.215,-1.359375
577.225,-1.2763671875
577.235,-1.1533203125
577.245,-1.0380859375
577.255,-0.96533203125
577.265,-0.951171875
577.275,-0.994140625
577.285,-1.0712890625
577.295,-1.146484375
577.305,-1.1796875
577.315,-1.15234375
577.325,-1.0712890625
577.328,-0.734375
577.338,-0.71435546875
577.348,-0.7275390625
577.358,-0.76171875
577.368,-0.8037109375
577.378,-0.8486328125
577.388,-0.8876953125
577.398,-0.90869140625
577.408,-0.9130859375
577.418,-0.9091796875
577.428,-0.89208984375
577.438,-0.859375
577.448,-0.82861328125
577.458,-0.822265625
577.468,-0.841796875
577.478,-0.87646484375
577.488,-0.92236328125
577.497,-1.0166015625
577.507,-1.05078125
577.517,-1.0732421875
577.527,-1.08203125
577.537,-1.08203125
577.547,-1.07421875
577.557,-1.0595703125
577.567,-1.041015625
577.577,-1.015625
577.587,-0.97705078125
577.597,-0.92529296875
577.607,-0.8681640625
577.617,-0.8134765625
577.627,-0.77197265625
577.637,-0.74755859375
577.647,-0.744140625
577.657,-0.76708984375
577.667,-0.81298828125
577.677,-0.86962890625
577.686,-0.92236328125
577.696,-0.9580078125
577.706,-0.97119140625
577.716,-0.96435546875
577.726,-0.93798828125
577.736,-0.89404296875
577.746,-0.837890625
577.756,-0.7744140625
577.766,-0.71728515625
577.776,-0.68212890625
577.786,-0.669921875
577.796,-0.67626953125
577.806,-0.7021484375
577.816,-0.740234375
577.826,-0.775390625
577.836,-0.79541015625
577.846,-0.7919921875
577.856,-0.759765625
577.866,-0.7119140625
577.876,-0.67236328125
577.885,-0.65380859375
577.895,-0.6572265625
577.905,-0.68212890625
577.915,-0.72314453125
577.925,-0.76611328125
577.935,-0.7958984375
577.945,-0.8115234375
577.955,-0.8203125
577.965,-0.8232421875
577.975,-0.8173828125
577.985,-0.80126953125
577.995,-0.779296875
578.005,-0.7578125
578.015,-0.74072265625
578.025,-0.72802734375
578.035,-0.7177734375
578.045,-0.70703125
578.055,-0.69091796875
578.065,-0.66455078125
578.075,-0.6318359375
578.077,-0.4873046875
578.087,-0.47412109375
578.097,-0.50439453125
578.107,-0.568359375
578.117,-0.63623046875
578.127,-0.68603515625
578.137,-0.71435546875
578.147,-0.72802734375
578.157,-0.7255859375
578.167,-0.703125
578.177,-0.666015625
578.187,-0.63330078125
578.197,-0.62646484375
578.207,-0.64453125
578.217,-0.66455078125
578.227,-0.66845703125
578.237,-0.65625
578.247,-0.61474609375
578.257,-0.58837890625
578.267,-0.552734375
578.277,-0.50390625
578.287,-0.44091796875
578.297,-0.3603515625
578.307,-0.26220703125
578.317,-0.1590576171875
578.327,-0.0782470703125
578.337,-0.044342041015625
578.347,-0.06048583984375
578.357,-0.1138916015625
578.367,-0.1920166015625
578.377,-0.273681640625
578.387,-0.32373046875
578.397,-0.31787109375
578.407,-0.2666015625
578.417,-0.1949462890625
578.427,-0.11181640625
578.436,-0.0093231201171875
578.446,0.11395263671875
578.456,0.2440185546875
578.466,0.360595703125
578.476,0.448486328125
578.486,0.491943359375
578.496,0.457763671875
578.506,0.312255859375
578.516,0.0721435546875
578.526,-0.185791015625
578.536,-0.37890625
578.546,-0.471923828125
578.556,-0.48681640625
578.566,-0.461669921875
578.576,-0.413330078125
578.586,-0.337646484375
578.596,-0.2352294921875
578.606,-0.1253662109375
578.616,-0.0341796875
578.626,0.0235137939453125
578.635,0.041412353515625
578.645,0.013214111328125
578.655,-0.057098388671875
578.665,-0.143798828125
578.675,-0.2191162109375
578.685,-0.279296875
578.695,-0.3369140625
578.705,-0.39990234375
578.715,-0.47314453125
578.725,-0.56201171875
578.735,-0.65625
578.745,-0.728515625
578.755,-0.75537109375
578.765,-0.7392578125
578.775,-0.70263671875
578.785,-0.6650390625
578.795,-0.6162109375
578.805,-0.53076171875
578.815,-0.402099609375
578.825,-0.26416015625
578.829,-0.06524658203125
578.839,-0.0207366943359375
578.849,0.0179443359375
578.859,0.032684326171875
578.869,0.0225982666015625
578.879,-0.00598526000976562
578.889,-0.055389404296875
578.899,-0.139404296875
578.909,-0.2529296875
578.919,-0.35498046875
578.929,-0.410888671875
578.939,-0.427978515625
578.949,-0.425537109375
578.959,-0.39306640625
578.969,-0.30224609375
578.979,-0.15234375
578.989,0.0190277099609375
578.997,0.310546875
579.007,0.418701171875
579.017,0.4677734375
579.027,0.42333984375
579.037,0.294921875
579.047,0.1346435546875
579.057,-0.00686264038085938
579.067,-0.1153564453125
579.077,-0.2001953125
579.087,-0.258544921875
579.097,-0.274169921875
579.107,-0.241943359375
579.117,-0.1798095703125
579.127,-0.11041259765625
579.137,-0.04205322265625
579.147,0.0225372314453125
579.157,0.076904296875
579.167,0.1217041015625
579.177,0.16015625
579.186,0.1854248046875
579.196,0.1976318359375
579.206,0.2081298828125
579.216,0.2156982421875
579.226,0.202392578125
579.236,0.159912109375
579.246,0.10516357421875
579.256,0.06536865234375
579.266,0.048583984375
579.276,0.0394287109375
579.286,0.0206298828125
579.296,-0.0110397338867188
579.306,-0.05426025390625
579.316,-0.11444091796875
579.326,-0.188720703125
579.336,-0.25537109375
579.346,-0.292236328125
579.356,-0.291259765625
579.366,-0.262451171875
579.376,-0.2244873046875
579.385,-0.1824951171875
579.395,-0.1343994140625
579.405,-0.09197998046875
579.415,-0.07135009765625
579.425,-0.0738525390625
579.435,-0.089599609375
579.445,-0.11260986328125
579.455,-0.1396484375
579.465,-0.1605224609375
579.475,-0.171142578125
579.485,-0.1795654296875
579.495,-0.184814453125
579.505,-0.1766357421875
579.515,-0.1533203125
579.525,-0.1180419921875
579.535,-0.076904296875
579.545,-0.043731689453125
579.555,-0.026763916015625
579.565,-0.0169677734375
579.575,-0.000781059265136719
579.577,0.05322265625
579.587,0.09136962890625
579.597,0.12396240234375
579.607,0.1263427734375
579.617,0.0931396484375
579.627,0.0321044921875
579.637,-0.03302001953125
579.647,-0.070556640625
579.657,-0.076904296875
579.667,-0.07904052734375
579.677,-0.095703125
579.687,-0.12432861328125
579.697,-0.1607666015625
579.707,-0.2039794921875
579.717,-0.24267578125
579.727,-0.2626953125
579.737,-0.25732421875
579.747,-0.181884765625
579.757,-0.1396484375
579.767,-0.1171875
579.777,-0.116943359375
579.787,-0.1248779296875
579.797,-0.125732421875
579.807,-0.1195068359375
579.817,-0.11138916015625
579.827,-0.1007080078125
579.837,-0.0885009765625
579.847,-0.07684326171875
579.857,-0.0626220703125
579.867,-0.046630859375
579.877,-0.035858154296875
579.887,-0.031402587890625
579.897,-0.0272216796875
579.907,-0.01971435546875
579.917,-0.00890350341796875
579.927,0.00595855712890625
579.936,0.0223541259765625
579.946,0.0279998779296875
579.956,0.011383056640625
579.966,-0.0266265869140625
579.976,-0.079345703125
579.986,-0.13427734375
579.996,-0.1690673828125
580.006,-0.167724609375
580.016,-0.13037109375
580.026,-0.061553955078125
580.036,0.032928466796875
580.046,0.132568359375
580.056,0.2078857421875
580.066,0.23974609375
580.076,0.2237548828125
580.086,0.1663818359375
580.096,0.0885009765625
580.106,0.0121917724609375
580.116,-0.052215576171875
580.126,-0.10205078125
580.135,-0.125732421875
580.145,-0.088134765625
580.155,0.034820556640625
580.165,0.1888427734375
580.175,0.274169921875
580.185,0.25390625
580.195,0.162109375
580.205,0.022186279296875
580.215,-0.1788330078125
580.225,-0.411376953125
580.235,-0.55029296875
580.245,-0.489013671875
580.255,-0.281005859375
580.265,-0.0987548828125
580.275,-0.06805419921875
580.285,-0.179931640625
580.295,-0.32958984375
580.305,-0.417724609375
580.315,-0.412353515625
580.325,-0.3173828125
580.328,0.6494140625
580.338,0.72607421875
580.348,0.60693359375
580.358,0.346435546875
580.368,0.050628662109375
580.378,-0.194580078125
580.388,-0.360107421875
580.398,-0.464599609375
580.408,-0.5234375
580.418,-0.52880859375
580.428,-0.481689453125
580.438,-0.4091796875
580.448,-0.346435546875
580.458,-0.31005859375
580.468,-0.286376953125
580.478,-0.234130859375
580.488,-0.1072998046875
580.497,0.351806640625
580.507,0.5517578125
580.517,0.64501953125
580.527,0.61474609375
580.537,0.4814453125
580.547,0.28955078125
580.557,0.0855712890625
580.567,-0.09124755859375
580.577,-0.2066650390625
580.587,-0.236572265625
580.597,-0.185791015625
580.607,-0.08514404296875
580.617,0.033203125
580.627,0.1417236328125
580.637,0.2171630859375
580.647,0.2486572265625
580.657,0.2421875
580.667,0.2119140625
580.677,0.16796875
580.686,0.1087646484375
580.696,0.031646728515625
580.706,-0.053131103515625
580.716,-0.12408447265625
580.726,-0.1568603515625
580.736,-0.1392822265625
580.746,-0.08392333984375
580.756,-0.0150146484375
580.766,0.048126220703125
580.776,0.092529296875
580.786,0.1094970703125
580.796,0.097412109375
580.806,0.06402587890625
580.816,0.0232696533203125
580.826,-0.0111618041992188
580.836,-0.031097412109375
580.846,-0.03570556640625
580.856,-0.0283203125
580.866,-0.0167694091796875
580.876,-0.0118865966796875
580.885,-0.0189208984375
580.895,-0.03582763671875
580.905,-0.055511474609375
580.915,-0.06903076171875
580.925,-0.0745849609375
580.935,-0.077392578125
580.945,-0.08050537109375
580.955,-0.08135986328125
580.965,-0.07666015625
580.975,-0.0672607421875
580.985,-0.05950927734375
580.995,-0.0592041015625
581.005,-0.06475830078125
581.015,-0.06982421875
581.025,-0.06903076171875
581.035,-0.0594482421875
581.045,-0.040496826171875
581.055,-0.0109481811523438
581.065,0.030853271484375
581.075,0.07965087890625
581.078,0.1490478515625
581.088,0.1314697265625
581.098,0.108642578125
581.108,0.07867431640625
581.118,0.0343017578125
581.128,-0.0281982421875
581.138,-0.1009521484375
581.148,-0.1695556640625
581.158,-0.224365234375
581.168,-0.263427734375
581.178,-0.284912109375
581.188,-0.280029296875
581.198,-0.24365234375
581.208,-0.1849365234375
581.218,-0.12030029296875
581.228,-0.0640869140625
581.238,-0.0260772705078125
581.247,-0.0104827880859375
581.257,-0.021881103515625
581.267,-0.035369873046875
581.277,-0.04620361328125
581.287,-0.054046630859375
581.297,-0.056884765625
581.307,-0.0517578125
581.317,-0.045196533203125
581.327,-0.04620361328125
581.337,-0.05096435546875
581.347,-0.05438232421875
581.357,-0.0635986328125
581.367,-0.08404541015625
581.377,-0.1072998046875
581.387,-0.1221923828125
581.397,-0.12261962890625
581.407,-0.102783203125
581.417,-0.06494140625
581.427,-0.026275634765625
581.436,-0.00152397155761719
581.446,0.0110015869140625
581.456,0.0145492553710938
581.466,0.00697708129882812
581.476,-0.00608062744140625
581.486,-0.0178680419921875
581.496,-0.0360107421875
581.506,-0.0682373046875
581.516,-0.10418701171875
581.526,-0.1304931640625
581.536,-0.14501953125
581.546,-0.1446533203125
581.556,-0.1258544921875
581.566,-0.09783935546875
581.576,-0.071533203125
581.586,-0.04736328125
581.596,-0.027099609375
581.606,-0.0195159912109375
581.616,-0.0259552001953125
581.626,-0.034942626953125
581.634,-0.03936767578125
581.644,-0.04254150390625
581.654,-0.046661376953125
581.664,-0.055084228515625
581.674,-0.07366943359375
581.684,-0.095703125
581.694,-0.10906982421875
581.704,-0.11822509765625
581.714,-0.1302490234375
581.724,-0.134765625
581.734,-0.125732421875
581.744,-0.1148681640625
581.754,-0.1080322265625
581.764,-0.09796142578125
581.774,-0.08734130859375
581.784,-0.0858154296875
581.794,-0.08526611328125
581.804,-0.068115234375
581.814,-0.032684326171875
581.824,0.0092620849609375
581.828,0.0273284912109375
581.838,-0.0220947265625
581.848,-0.0474853515625
581.858,-0.039581298828125
581.868,-0.0194854736328125
581.878,-0.01446533203125
581.888,-0.045562744140625
581.898,-0.121337890625
581.908,-0.2291259765625
581.918,-0.345458984375
581.928,-0.455078125
581.938,-0.54833984375
581.948,-0.611328125
581.958,-0.62744140625
581.968,-0.57958984375
581.978,-0.465576171875
581.987,-0.3125
581.997,-0.1544189453125
582.007,-0.0101470947265625
582.017,0.09661865234375
582.027,0.13427734375
582.037,0.0980224609375
582.047,0.0264434814453125
582.057,-0.0294647216796875
582.067,-0.04779052734375
582.077,-0.040435791015625
582.087,-0.03021240234375
582.097,-0.033447265625
582.107,-0.057281494140625
582.117,-0.10552978515625
582.127,-0.1795654296875
582.137,-0.270751953125
582.147,-0.3603515625
582.157,-0.430419921875
582.167,-0.47265625
582.177,-0.4931640625
582.186,-0.498779296875
582.196,-0.478515625
582.206,-0.418212890625
582.216,-0.327880859375
582.226,-0.23583984375
582.236,-0.166259765625
582.246,-0.13037109375
582.256,-0.1246337890625
582.266,-0.1319580078125
582.276,-0.1375732421875
582.286,-0.13916015625
582.296,-0.1385498046875
582.306,-0.1383056640625
582.316,-0.1441650390625
582.326,-0.1605224609375
582.336,-0.1844482421875
582.346,-0.2103271484375
582.356,-0.2333984375
582.366,-0.25341796875
582.376,-0.2783203125
582.384,-0.312744140625
582.394,-0.3515625
582.404,-0.39111328125
582.414,-0.43701171875
582.424,-0.4951171875
582.434,-0.55810546875
582.444,-0.6181640625
582.454,-0.6787109375
582.464,-0.74853515625
582.474,-0.81689453125
582.484,-0.853515625
582.494,-0.83447265625
582.504,-0.767578125
582.514,-0.6767578125
582.524,-0.57666015625
582.534,-0.478759765625
582.544,-0.398681640625
582.554,-0.35302734375
582.564,-0.349853515625
582.574,-0.392333984375
582.576,-0.76025390625
582.586,-0.826171875
582.596,-0.87255859375
582.606,-0.8984375
582.616,-0.90966796875
582.626,-0.9033203125
582.636,-0.87353515625
582.646,-0.828125
582.656,-0.787109375
582.666,-0.75146484375
582.676,-0.71337890625
582.686,-0.6767578125
582.696,-0.64892578125
582.706,-0.63134765625
582.716,-0.6279296875
582.726,-0.6357421875
582.736,-0.64208984375
582.737,-0.63818359375
582.747,-0.623046875
582.757,-0.6005859375
582.767,-0.5810546875
582.777,-0.57861328125
582.787,-0.603515625
582.797,-0.6572265625
582.807,-0.7333984375
582.817,-0.8154296875
582.827,-0.890625
582.837,-0.9482421875
582.847,-0.9775390625
582.857,-0.97509765625
582.867,-0.93994140625
582.877,-0.8662109375
582.887,-0.75927734375
582.897,-0.63671875
582.907,-0.51318359375
582.917,-0.405517578125
582.927,-0.3349609375
582.936,-0.31884765625
582.946,-0.35595703125
582.956,-0.434326171875
582.966,-0.54052734375
582.976,-0.65283203125
582.986,-0.7451171875
582.996,-0.81201171875
583.006,-0.86279296875
583.016,-0.8984375
583.026,-0.916015625
583.036,-0.91015625
583.046,-0.8720703125
583.056,-0.7978515625
583.066,-0.69482421875
583.076,-0.58544921875
583.086,-0.50341796875
583.096,-0.4736328125
583.106,-0.498291015625
583.116,-0.55419921875
583.126,-0.60693359375
583.134,-0.63427734375
583.144,-0.6328125
583.154,-0.6064453125
583.164,-0.55517578125
583.174,-0.480224609375
583.184,-0.3955078125
583.194,-0.322998046875
583.204,-0.287841796875
583.214,-0.3134765625
583.224,-0.406494140625
583.234,-0.5517578125
583.244,-0.720703125
583.254,-0.87939453125
583.264,-1.0029296875
583.274,-1.0771484375
583.284,-1.083984375
583.294,-1.015625
583.304,-0.880859375
583.314,-0.69384765625
583.324,-0.47412109375
583.328,0.12005615234375
583.338,0.040496826171875
583.348,-0.09173583984375
583.358,-0.2489013671875
583.368,-0.3798828125
583.378,-0.437744140625
583.388,-0.412353515625
583.398,-0.334228515625
583.408,-0.247802734375
583.418,-0.1756591796875
583.428,-0.11553955078125
583.438,-0.06317138671875
583.448,-0.0268707275390625
583.458,-0.0224151611328125
583.468,-0.056671142578125
583.478,-0.12054443359375
583.487,-0.1944580078125
583.497,-0.256591796875
583.507,-0.292724609375
583.517,-0.296630859375
583.527,-0.26416015625
583.537,-0.200439453125
583.547,-0.1243896484375
583.557,-0.05841064453125
583.567,-0.022125244140625
583.577,-0.02239990234375
583.587,-0.0498046875
583.597,-0.093994140625
583.607,-0.1466064453125
583.617,-0.1934814453125
583.627,-0.22021484375
583.637,-0.2149658203125
583.647,-0.1680908203125
583.657,-0.08575439453125
583.667,0.0124588012695312
583.677,0.10369873046875
583.686,0.16162109375
583.696,0.1724853515625
583.706,0.1468505859375
583.716,0.09954833984375
583.726,0.04046630859375
583.736,-0.018218994140625
583.746,-0.06768798828125
583.756,-0.1114501953125
583.766,-0.1602783203125
583.776,-0.220703125
583.786,-0.2900390625
583.796,-0.3623046875
583.806,-0.4345703125
583.816,-0.50537109375
583.826,-0.5751953125
583.836,-0.64208984375
583.846,-0.701171875
583.856,-0.74658203125
583.866,-0.7763671875
583.876,-0.7890625
583.884,-0.77978515625
583.894,-0.74755859375
583.904,-0.70703125
583.914,-0.681640625
583.924,-0.6884765625
583.934,-0.728515625
583.944,-0.78955078125
583.954,-0.849609375
583.964,-0.89306640625
583.974,-0.91943359375
583.984,-0.9375
583.994,-0.95263671875
584.004,-0.9736328125
584.014,-1.0048828125
584.024,-1.0419921875
584.034,-1.0751953125
584.044,-1.09375
584.054,-1.087890625
584.064,-1.0576171875
584.074,-1.0107421875
584.076,-0.88037109375
584.086,-0.88916015625
584.096,-0.9052734375
584.106,-0.9208984375
584.116,-0.93505859375
584.126,-0.9482421875
584.136,-0.9619140625
584.146,-0.97900390625
584.156,-1.00390625
584.166,-1.0361328125
584.176,-1.0771484375
584.186,-1.119140625
584.196,-1.1572265625
584.206,-1.18359375
584.216,-1.193359375
584.226,-1.173828125
584.236,-1.123046875
584.237,-1.0576171875
584.247,-0.99951171875
584.257,-0.96044921875
584.267,-0.94140625
584.277,-0.9326171875
584.287,-0.92529296875
584.297,-0.91162109375
584.307,-0.88818359375
584.317,-0.85986328125
584.327,-0.84326171875
584.337,-0.85009765625
584.347,-0.87890625
584.357,-0.92431640625
584.367,-0.97802734375
584.377,-1.0205078125
584.387,-1.041015625
584.397,-1.044921875
584.407,-1.0458984375
584.417,-1.052734375
584.427,-1.060546875
584.436,-1.0654296875
584.446,-1.0693359375
584.456,-1.0693359375
584.466,-1.0625
584.476,-1.05078125
584.486,-1.029296875
584.496,-1.0029296875
584.506,-0.97998046875
584.516,-0.9580078125
584.526,-0.93603515625
584.536,-0.91259765625
584.546,-0.88525390625
584.556,-0.8671875
584.566,-0.8798828125
584.576,-0.919921875
584.586,-0.966796875
584.596,-1.0146484375
584.606,-1.05859375
584.616,-1.08203125
584.626,-1.080078125
584.634,-1.0625
584.644,-1.02734375
584.654,-0.97705078125
584.664,-0.939453125
584.674,-0.935546875
584.684,-0.96435546875
584.694,-1.029296875
584.704,-1.1357421875
584.714,-1.2548828125
584.724,-1.3359375
584.734,-1.353515625
584.744,-1.3203125
584.754,-1.2568359375
584.764,-1.1796875
584.774,-1.11328125
584.784,-1.0791015625
584.794,-1.0654296875
584.804,-1.0419921875
584.814,-1.0068359375
584.824,-0.9853515625
584.828,-0.8681640625
584.838,-0.86279296875
584.848,-0.8603515625
584.858,-0.84423828125
584.868,-0.826171875
584.878,-0.83251953125
584.888,-0.8720703125
584.898,-0.92138671875
584.908,-0.947265625
584.918,-0.9462890625
584.928,-0.951171875
584.938,-0.994140625
584.948,-1.076171875
584.958,-1.166015625
584.968,-1.2275390625
584.978,-1.2568359375
584.987,-1.287109375
584.997,-1.3359375
585.007,-1.373046875
585.017,-1.3291015625
585.027,-1.1630859375
585.037,-0.9091796875
585.047,-0.662109375
585.057,-0.51171875
585.067,-0.478515625
585.077,-0.51806640625
585.087,-0.57177734375
585.097,-0.60888671875
585.107,-0.62890625
585.117,-0.6533203125
585.127,-0.705078125
585.137,-0.78662109375
585.147,-0.87060546875
585.157,-0.9052734375
585.167,-0.85302734375
585.177,-0.72265625
585.186,-0.56787109375
585.196,-0.4609375
585.206,-0.463623046875
585.216,-0.5888671875
585.226,-0.7900390625
585.236,-0.9853515625
585.246,-1.09765625
585.256,-1.1015625
585.266,-1.02734375
585.276,-0.94482421875
585.286,-0.91015625
585.296,-0.93603515625
585.306,-0.990234375
585.316,-1.015625
585.326,-0.9755859375
585.336,-0.8759765625
585.346,-0.7666015625
585.356,-0.71435546875
585.366,-0.763671875
585.376,-0.9052734375
585.384,-1.068359375
585.394,-1.146484375
585.404,-1.0478515625
585.414,-0.75927734375
585.424,-0.35498046875
585.434,0.0345458984375
585.444,0.28662109375
585.454,0.321533203125
585.464,0.122314453125
585.474,-0.2568359375
585.484,-0.70947265625
585.494,-1.1103515625
585.504,-1.3515625
585.514,-1.3671875
585.524,-1.1494140625
585.534,-0.751953125
585.544,-0.27587890625
585.554,0.1531982421875
585.564,0.41455078125
585.574,0.42578125
585.576,-1.5166015625
585.586,-2.046875
585.596,-2.421875
585.606,-2.587890625
585.616,-2.5234375
585.626,-2.23828125
585.636,-1.77734375
585.646,-1.2021484375
585.656,-0.58154296875
585.666,0.02099609375
585.676,0.56005859375
585.686,1.0048828125
585.696,1.337890625
585.706,1.55078125
585.716,1.6484375
585.726,1.6474609375
585.736,1.5859375
585.737,1.509765625
585.747,1.46875
585.757,1.498046875
585.767,1.607421875
585.777,1.7744140625
585.787,1.955078125
585.797,2.099609375
585.807,2.173828125
585.817,2.1484375
585.827,2.01953125
585.837,1.7998046875
585.847,1.5244140625
585.857,1.2333984375
585.867,0.953125
585.877,0.68896484375
585.887,0.431640625
585.897,0.16455078125
585.907,-0.1280517578125
585.917,-0.461669921875
585.927,-0.84765625
585.935,-1.28515625
585.945,-1.7490234375
585.955,-2.1953125
585.965,-2.591796875
585.975,-2.921875
585.985,-3.181640625
585.995,-3.3671875
586.005,-3.447265625
586.015,-3.36328125
586.025,-3.046875
586.035,-2.46875
586.045,-1.677734375
586.055,-0.77880859375
586.065,0.09576416015625
586.075,0.82763671875
586.085,1.3251953125
586.095,1.5244140625
586.105,1.388671875
586.115,0.93115234375
586.125,0.2393798828125
586.134,-0.54296875
586.144,-1.2587890625
586.154,-1.7763671875
586.164,-1.99609375
586.174,-1.8671875
586.184,-1.4140625
586.194,-0.76123046875
586.204,-0.10418701171875
586.214,0.34765625
586.224,0.440185546875
586.234,0.136962890625
586.244,-0.46142578125
586.254,-1.158203125
586.264,-1.7197265625
586.274,-1.9423828125
586.284,-1.728515625
586.294,-1.142578125
