Time,GyroX
187.528,-0.800000011920929
187.538,-4.79000043869019
187.548,19.3200016021729
187.558,38.6000022888184
187.568,43.1900024414062
187.579,51.9700012207031
187.589,34.9300003051758
187.599,10.1100006103516
187.609,-11.1300001144409
187.619,-17.0799999237061
187.629,5.35000038146973
187.639,2.24000000953674
187.649,-22.7100009918213
187.659,-14.5600004196167
187.669,-26.810001373291
187.679,1.47000002861023
187.689,9.69000053405762
187.699,9.83000087738037
187.709,13.3000001907349
187.719,7.21000051498413
187.729,12.0700006484985
187.739,35.8000030517578
187.749,24.1800003051758
187.759,8.64000034332275
187.769,16.5500011444092
187.773,20.7500019073486
187.783,22.1900005340576
187.793,20.9600009918213
187.803,10.5300006866455
187.813,11.5100002288818
187.823,15.2600011825562
187.833,28.560001373291
187.843,8.85000038146973
187.853,16.310001373291
187.863,-2.03000020980835
187.873,2.59000015258789
187.883,35.2100028991699
187.893,24.6000003814697
187.903,10.6000003814697
187.913,-22.5000019073486
187.923,-27.9300022125244
187.931,-17.8800010681152
187.941,-6.44000053405762
187.951,-41.5800018310547
187.961,-36.2600021362305
187.971,18.5500011444092
187.981,20.7200012207031
187.991,27.3300018310547
188.001,17.7800006866455
188.011,27.0500011444092
188.021,45.5700035095215
188.031,40.8800010681152
188.041,25.7600021362305
188.051,4.01999998092651
188.061,-6.93000030517578
188.071,4.76000022888184
188.081,23.8700008392334
188.091,27.8600006103516
188.101,25.0200004577637
188.111,-9.80000019073486
188.121,12.9800004959106
188.13,41.4000015258789
188.14,34.2600021362305
188.15,18.4100017547607
188.16,11.9300003051758
188.17,34.0200004577637
188.18,32.6900024414062
188.19,26.3500003814697
188.2,22.5400009155273
188.21,9.03000068664551
188.22,12.7000007629395
188.23,6.26000022888184
188.24,-10.1500005722046
188.25,-14.5200004577637
188.26,-8.85000038146973
188.27,-2.66000008583069
188.28,7.80000019073486
188.29,8.07999992370605
188.3,9.6200008392334
188.31,34.5100021362305
188.32,38.6700019836426
188.329,41.7200012207031
188.339,51.060001373291
188.349,51.2700042724609
188.359,50.2200012207031
188.369,33.4900016784668
188.379,20.4000015258789
188.389,6.40000009536743
188.399,-8.43000030517578
188.409,-28.5200004577637
188.419,-45.4300003051758
188.429,-56.1000022888184
188.439,-23.6600017547607
188.449,-10.2900009155273
188.459,1.00999999046326
188.469,24.1100006103516
188.479,51.6600036621094
188.489,70.2400054931641
188.499,90.4000015258789
188.509,85.8200073242188
188.519,84.3500061035156
188.523,-25.4400005340576
188.533,-56.560001373291
188.543,-48.7500038146973
188.553,-43.1500015258789
188.563,-24.1500015258789
188.573,19.0400009155273
188.583,44.2700004577637
188.593,79.5900039672852
188.603,100.76000213623
188.613,108.320007324219
188.623,107.380004882812
188.633,88.0200042724609
188.643,57.7500038146973
188.653,8.57000064849854
188.663,-38.9200019836426
188.673,-74.370002746582
188.681,-89.3200073242188
188.691,-83.3000030517578
188.701,-65.0600051879883
188.711,-39.9300003051758
188.721,-16.6900005340576
188.731,13.1600008010864
188.741,33.4900016784668
188.751,32.5800018310547
188.761,27.230001449585
188.771,20.5100002288818
188.781,9.41000080108643
188.791,-1.05000007152557
188.801,-13.5100002288818
188.811,-18.3400001525879
188.821,-6.05000019073486
188.831,-0.560000002384186
188.841,2.41000008583069
188.851,14.5200004577637
188.861,-1.54000008106232
188.871,-13.2300004959106
188.88,-19.6700000762939
188.89,-43.120002746582
188.9,-58.8000030517578
188.91,-49.1400032043457
188.92,-36.4300003051758
188.93,-12.3200006484985
188.94,28.6300010681152
188.95,51.2400016784668
188.96,67.8600006103516
188.97,88.370002746582
188.98,84.140007019043
188.99,54.3200035095215
189,42.9800033569336
189.01,19.1100006103516
189.02,-3.57000017166138
189.03,-7.52000045776367
189.04,-34.8200035095215
189.05,-43.9900016784668
189.06,-17.9200000762939
189.07,-10.0800008773804
189.079,-13.6100006103516
189.089,11.1600008010864
189.099,15.4300003051758
189.109,-1.78000009059906
189.119,-0.21000000834465
189.129,-9.73000049591064
189.139,-25.9300003051758
189.149,-7.03000020980835
189.159,-4.30000019073486
189.169,-3.1800000667572
189.179,21.6300010681152
189.189,47.5300025939941
189.199,37.9400024414062
189.209,55.120002746582
189.219,49.4900016784668
189.229,19.8800010681152
189.239,15.6400003433228
189.249,-2.45000004768372
189.259,-29.6400012969971
189.269,-16.4099998474121
189.273,-17.3600006103516
189.283,-10.3900003433228
189.293,14.8000011444092
189.303,17.1800003051758
189.313,22.5000019073486
189.323,40.1400032043457
189.333,46.370002746582
189.343,41.6500015258789
189.353,73.7100067138672
189.363,75.4200057983398
189.373,33.9800033569336
189.383,49.0000038146973
189.393,93.6900024414062
189.403,69.4700012207031
189.413,57.4700012207031
189.423,76.4000015258789
189.431,40.0700035095215
189.441,20.9600009918213
189.451,37.7300033569336
189.461,24.2200012207031
189.471,18.230001449585
189.481,41.7900009155273
189.491,68.2100067138672
189.501,70.3800048828125
189.511,88.8300018310547
189.521,102.200004577637
189.531,82.8400039672852
189.541,60.6900024414062
189.551,64.4700012207031
189.561,59.9500045776367
189.571,46.4800033569336
189.581,63.3800048828125
189.591,92.9900054931641
189.601,109.790008544922
189.611,148.010009765625
189.621,189.380004882812
189.63,192.600006103516
189.64,171.360000610352
189.65,147.030014038086
189.66,97.8600082397461
189.67,44.8000030517578
189.68,-9.0600004196167
189.69,-52.1500015258789
189.7,-81.2000045776367
189.71,-103.67000579834
189.72,-116.830001831055
189.73,-120.68000793457
189.74,-120.570007324219
189.75,-109.93000793457
189.76,-99.9200057983398
189.77,-110.000007629395
189.78,-113.500007629395
189.79,-107.690002441406
189.8,-97.2300033569336
189.81,-84.4900054931641
189.82,-49.1000022888184
189.829,-22.4000015258789
189.839,-6.02000045776367
189.849,26.3500003814697
189.859,52.1500015258789
189.869,54.9100036621094
189.879,73.0100021362305
189.889,101.850006103516
189.899,97.7500076293945
189.909,63.4500045776367
189.919,23.8300018310547
189.929,-32.3000030517578
189.939,-90.3000030517578
189.949,-136.150009155273
189.959,-186.480010986328
189.969,-247.270004272461
189.979,-277.580017089844
189.989,-282.380004882812
189.999,-250.560012817383
190.009,-170.100006103516
190.019,-74.1300048828125
190.023,253.220016479492
190.033,282.240020751953
190.043,287.560028076172
190.053,260.290008544922
190.063,178.290008544922
190.073,109.160003662109
190.083,60.7900047302246
190.093,-4.20000028610229
190.103,-49.0300025939941
190.113,-84.9100036621094
190.123,-114.970008850098
190.133,-120.150009155273
190.143,-109.76000213623
190.153,-113.820007324219
190.163,-93.7600021362305
190.173,-49.2100028991699
190.181,-9.38000011444092
190.191,35.4500007629395
190.201,58.9400024414062
190.211,57.2600021362305
190.221,36.8200035095215
190.231,9.17000007629395
190.241,-31.3600006103516
190.251,-60.5800018310547
190.261,-73.5
190.271,-84.3100051879883
190.281,-55.8600044250488
190.291,-13.1600008010864
190.301,5.53000020980835
190.311,14.3800010681152
190.321,36.6400032043457
190.331,59.2200012207031
190.341,73.2200012207031
190.351,87.9200057983398
190.361,63.560001373291
190.371,16.1300010681152
190.38,32.8300018310547
190.39,69.0500030517578
190.4,85.5700073242188
190.41,116.340003967285
190.42,147.490005493164
190.43,178.250015258789
190.44,205.34001159668
190.45,231.240005493164
190.46,231.380004882812
190.47,205.34001159668
190.48,164.460006713867
190.49,129.570007324219
190.5,90.120002746582
190.51,81.620002746582
190.52,88.3000030517578
190.53,120.470008850098
190.54,151.650009155273
190.55,167.68000793457
190.56,195.860015869141
190.57,198.970016479492
190.579,188.330001831055
190.589,163.410003662109
190.599,108.880004882812
190.609,65.9000015258789
190.619,5.32000017166138
190.629,-67.2000045776367
190.639,-129.320007324219
190.649,-197.360015869141
190.659,-203.420013427734
190.669,-192.670013427734
190.679,-199.570007324219
190.689,-185.880004882812
190.699,-166.600006103516
190.709,-142.480010986328
190.719,-95.3000030517578
190.729,-69.4400024414062
190.739,-45.3200035095215
190.749,-3.92000007629395
190.759,29.8900012969971
190.769,49.9400024414062
190.774,98.7700042724609
190.784,60.8300018310547
190.794,19.8800010681152
190.804,-31.5700016021729
190.814,-122.110008239746
190.824,-191.34001159668
190.834,-175.870010375977
190.844,-118.470008850098
190.854,-15.2200002670288
190.864,109.51000213623
190.874,222.140014648438
190.884,294.77001953125
190.894,344.850006103516
190.904,368.300018310547
190.914,356.300018310547
190.924,345.52001953125
190.931,295.640014648438
190.941,177.550003051758
190.951,26.7400016784668
190.961,-115.500007629395
190.971,-180.700012207031
190.981,-244.650009155273
190.991,-239.890014648438
191.001,-194.530014038086
191.011,-140.910003662109
191.021,-17.2200012207031
191.031,88.9700012207031
191.041,133.170013427734
191.051,132.93000793457
191.061,126.800003051758
191.071,109.51000213623
191.081,70.2400054931641
191.091,-6.79000043869019
191.101,-63.0300025939941
191.111,-71.2900009155273
191.121,-58.8300018310547
191.13,-22.8500003814697
191.14,-6.51000022888184
191.15,14.9800004959106
191.16,48.7500038146973
191.17,48.6100006103516
191.18,46.9700012207031
191.19,21.4200000762939
191.2,-8.32999992370605
191.21,-11.2300004959106
191.22,-29.1500015258789
191.23,-69.3000030517578
191.24,-107.310005187988
191.25,-158.020004272461
191.26,-194.280014038086
191.27,-213.670013427734
191.28,-223.370010375977
191.29,-208.250015258789
191.3,-149.450012207031
191.31,-62.0200042724609
191.32,31.3600006103516
191.329,105.280006408691
191.339,175.770004272461
191.349,218.540008544922
191.359,220.530014038086
191.369,200.09001159668
191.379,164.460006713867
191.389,113.990005493164
191.399,79.870002746582
191.409,59.5700035095215
191.419,48.4700012207031
191.429,28.2400016784668
191.439,7.10000038146973
191.449,-18.2000007629395
191.459,-29.0800018310547
191.469,-31.8800010681152
191.479,-41.0500030517578
191.489,-66.4600067138672
191.499,-89.390007019043
191.509,-101.18000793457
191.519,-89.1100006103516
191.523,97.5400009155273
191.533,111.820007324219
191.543,132.400009155273
191.553,122.530006408691
191.563,88.1600036621094
191.573,53.370002746582
191.583,-24.7800006866455
191.593,-61.6000022888184
191.603,-71.8199996948242
191.613,-101.220001220703
191.623,-69.6100006103516
191.633,-17.3200016021729
191.643,8.05000019073486
191.653,36.2900009155273
191.663,73.9200057983398
191.673,105.590003967285
191.681,118.370002746582
191.691,109.230003356934
191.701,88.1600036621094
191.711,65.0600051879883
191.721,48.0900039672852
191.731,27.0500011444092
191.741,19.4200000762939
191.751,15.9200010299683
191.761,14.4200010299683
191.771,26.2500019073486
191.781,26.3200016021729
191.791,6.68000030517578
191.801,-32.3000030517578
191.811,-42.5200004577637
191.821,-54.7700042724609
191.831,-50.430004119873
191.841,-60.7900047302246
191.851,-45.9900016784668
191.861,-17.6400012969971
191.871,5.5600004196167
191.88,23.6600017547607
191.89,28.980001449585
191.9,22.3600006103516
191.91,35.2400016784668
191.92,43.0500030517578
191.93,19.4600009918213
191.94,7.91000032424927
191.95,16.3400001525879
191.96,17.1800003051758
191.97,19.8800010681152
191.98,25.9300003051758
191.99,19.7400016784668
192,18.2700004577637
192.01,29.8200016021729
192.02,25.2000007629395
192.03,14.3100004196167
192.04,14.1400003433228
192.05,13.6800003051758
192.06,3.99000024795532
192.07,3.3600001335144
192.075,-28.2100009918213
192.085,-9.48000049591064
192.095,4.72000026702881
192.105,10.2500009536743
192.115,14.3500003814697
192.125,8.53999996185303
192.135,25.5100021362305
192.145,35.3500022888184
192.155,16.0300006866455
192.165,-2.13000011444092
192.175,-6.82000017166138
192.185,-3.81000018119812
192.195,3.25000023841858
192.205,-5.88000011444092
192.215,-16.8700008392334
192.225,-3.39000010490417
192.232,9.13000011444092
192.242,2.66000008583069
192.252,10.0400009155273
192.262,13.7200002670288
192.272,10.2900009155273
192.282,12.7000007629395
192.292,3.22000026702881
192.302,5.04000043869019
192.312,22.6100006103516
192.322,18.9300003051758
192.332,6.23000049591064
192.342,4.44000005722046
192.352,4.44000005722046
192.362,-2.62000012397766
192.372,0.140000000596046
192.382,-18.9000015258789
192.392,-21.0000019073486
192.402,1.71000003814697
192.412,6.54000043869019
192.422,3.32000017166138
192.431,12.7400007247925
192.441,14.5200004577637
192.451,18.7600002288818
192.461,26.7400016784668
192.471,17.3900012969971
192.481,13.2600002288818
192.491,11.8600006103516
192.501,17.810001373291
192.511,27.7200012207031
192.521,27.4000015258789
192.531,9.76000022888184
192.541,11.1600008010864
192.551,13.3000001907349
192.561,1.00999999046326
192.571,-4.93000030517578
192.581,-16.8000011444092
192.591,-19.5300006866455
192.601,-0.730000019073486
192.611,4.23000001907349
192.621,-9.20000076293945
192.63,0.980000019073486
192.64,12.0700006484985
192.65,20.9300003051758
192.66,26.3900012969971
192.67,19.5300006866455
192.68,6.12000036239624
192.69,8.53999996185303
192.7,6.72000026702881
192.71,11.0200004577637
192.72,10.1100006103516
192.73,-0.140000000596046
192.74,1.64000010490417
192.75,7.66000032424927
192.76,12.9800004959106
192.77,6.40000009536743
192.78,2.52000021934509
192.79,10.6400003433228
192.8,16.9000015258789
192.81,15.0800008773804
192.82,13.2600002288818
192.825,-11.4400005340576
192.835,-15.5400009155273
192.845,-6.16000032424927
192.855,-0.350000023841858
192.865,6.68000030517578
192.875,0.0700000002980232
192.885,-6.89000034332275
192.895,2.66000008583069
192.905,19.3500003814697
192.915,24.8800010681152
192.925,21.3500003814697
192.935,6.89000034332275
192.945,3.60000014305115
192.955,12.4600009918213
192.965,4.41000032424927
192.975,-4.09000015258789
192.982,4.93000030517578
192.992,12.8100004196167
193.002,17.2900009155273
193.012,4.44000005722046
193.022,-18.3700008392334
193.032,-6.37000036239624
193.042,10.6700000762939
193.052,7.87000036239624
193.062,9.38000011444092
193.072,14.4500007629395
193.082,18.480001449585
193.092,25.9300003051758
193.102,24.1800003051758
193.112,38.8500022888184
193.122,57.8500022888184
193.132,38.0400009155273
193.142,21.9400005340576
193.152,14.7300004959106
193.162,31.2500019073486
193.172,54.9800033569336
193.181,5.14000034332275
193.191,-50.0800018310547
193.201,-36.8900032043457
193.211,-28.8400020599365
193.221,-23.060001373291
193.231,-22.5000019073486
193.241,-51.5900039672852
193.251,-13.9300003051758
193.261,35.1000022888184
193.271,16.8700008392334
193.281,22.0500011444092
193.291,32.5500030517578
193.301,32.2300033569336
193.311,51.1000022888184
193.321,26.1400012969971
193.331,23.1700019836426
193.341,37.4100036621094
193.351,24.4300003051758
193.361,24.9900016784668
193.371,42.3500022888184
193.38,29.7100009918213
193.39,1.57000005245209
193.4,-30.1000022888184
193.41,-40.4200019836426
193.42,-9.66000080108643
193.43,9.48000049591064
193.44,0.560000002384186
193.45,3.15000009536743
193.46,19.3500003814697
193.47,37.4800033569336
193.48,26.3200016021729
193.49,22.7500019073486
193.5,40.4200019836426
193.51,38.0800018310547
193.52,27.8600006103516
193.53,38.0400009155273
193.54,17.810001373291
193.55,3.81000018119812
193.56,-10.5700006484985
193.57,-29.9900016784668
193.574,0.770000040531158
193.584,15.8500003814697
193.594,59.2900009155273
193.604,76.5400009155273
193.614,79.5200042724609
193.624,81.6500015258789
193.634,76.5800018310547
193.644,68.2100067138672
193.654,19.8800010681152
193.664,-29.5700016021729
193.674,-32.1300010681152
193.684,-11.9300003051758
193.694,4.30000019073486
193.704,19.9500007629395
193.714,19.810001373291
193.724,34.2600021362305
193.732,33.6700019836426
193.742,-3.46000027656555
193.752,-7.24000024795532
193.762,-18.2000007629395
193.772,-27.7500019073486
193.782,-6.51000022888184
193.792,18.5500011444092
193.802,47.1100006103516
193.812,79.9400024414062
193.822,95.5500030517578
193.832,109.830001831055
193.842,107.590003967285
193.852,87.9200057983398
193.862,92.2600021362305
193.872,55.120002746582
193.882,1.96000003814697
193.892,-16.7600002288818
193.902,-52.8500022888184
193.912,-86.6600036621094
193.922,-90.0900039672852
193.931,-98.4900054931641
193.941,-82.9800033569336
193.951,-40.9500007629395
193.961,-29.6400012969971
193.971,-7.4200005531311
193.981,28.5900020599365
193.991,34.8200035095215
194.001,31.9500007629395
194.011,24.9900016784668
194.021,32.8300018310547
194.031,27.0900020599365
194.041,22.0100002288818
194.051,29.5700016021729
194.061,12.9500007629395
194.071,17.0100002288818
194.081,36.5
194.091,19.25
194.101,10.3900003433228
194.111,10.3900003433228
194.121,9.03000068664551
194.13,19.810001373291
194.14,28.9100017547607
194.15,20.5400009155273
194.16,52.0400009155273
194.17,71.2200012207031
194.18,89.3500061035156
194.19,108.250007629395
194.2,108.01000213623
194.21,111.050003051758
194.22,97.7500076293945
194.23,80.3200073242188
194.24,59.9200019836426
194.25,31.5700016021729
194.26,31.2500019073486
194.27,25.2700004577637
194.28,2.59000015258789
194.29,12.6300010681152
194.3,-22.5400009155273
194.31,-39.0900001525879
194.32,-49.2400016784668
194.324,-14.1000003814697
194.334,20.1900005340576
194.344,24.3600006103516
194.354,67.0200042724609
194.364,39.7600021362305
194.374,44.0300025939941
194.384,64.9900054931641
194.394,56.4200019836426
194.404,68.5300064086914
194.414,64.7100067138672
194.424,31.1800022125244
194.434,29.9600009918213
194.444,18.0200004577637
194.454,-29.4000015258789
194.464,-33.6300010681152
194.474,-88.0900039672852
194.482,-123.580009460449
194.492,-131
194.502,-144.160003662109
194.512,-143.810012817383
194.522,-126.700004577637
194.532,-85.7100067138672
194.542,-61.6300010681152
194.552,-9.55000019073486
194.562,28.7700004577637
194.572,87.7400054931641
194.582,117.560005187988
194.592,149.270004272461
194.602,164.530014038086
194.612,150.880004882812
194.622,114.970008850098
194.632,64.2900009155273
194.642,5.04000043869019
194.652,-50.5000038146973
194.662,-112.870002746582
194.672,-161.240005493164
194.681,-204.570007324219
194.691,-234.640014648438
194.701,-244.300018310547
194.711,-241.010009765625
194.721,-215.980010986328
194.731,-156.870010375977
194.741,-96.0000076293945
194.751,-37.6600036621094
194.761,35
194.771,94.9900054931641
194.781,140.310012817383
194.791,168.700012207031
194.801,164.250015258789
194.811,139.330001831055
194.821,112.490005493164
194.831,84.4200057983398
194.841,55.1600036621094
194.851,22.7100009918213
194.861,-20.9300003051758
194.871,-78.3300018310547
194.88,-116.270004272461
194.89,-137.200012207031
194.9,-150.710006713867
194.91,-158.860000610352
194.92,-167.93000793457
194.93,-169.330001831055
194.94,-165.620010375977
194.95,-156.310012817383
194.96,-121.200004577637
194.97,-80.1100006103516
194.98,-27.1600017547607
194.99,52.4600028991699
195,137.09001159668
195.01,209.260009765625
195.02,268.059997558594
195.03,300.680023193359
195.04,311.780029296875
195.05,320.460021972656
195.06,319.830017089844
195.07,319.160003662109
195.074,402.220031738281
195.084,412.300018310547
195.094,399.980010986328
195.104,397.390014648438
195.114,371.310028076172
195.124,325.110015869141
195.134,293.580017089844
195.144,260.430023193359
195.154,197.260009765625
195.164,143.290008544922
195.174,84.1700057983398
195.184,9.55000019073486
195.194,-29.8200016021729
195.204,-79.3100051879883
195.214,-147.980010986328
195.224,-173.560012817383
195.232,-198.59001159668
195.242,-197.920013427734
195.252,-179.440002441406
195.262,-150.670013427734
195.272,-122.92000579834
195.282,-83.2600021362305
195.292,-36.1500015258789
195.302,0.590000033378601
195.312,31.6400012969971
195.322,48.0500030517578
195.332,49.6300010681152
195.342,43.1900024414062
195.352,52.7800025939941
195.362,44.5900039672852
195.372,15.9900007247925
195.382,-30.1300010681152
195.392,-113.850006103516
195.402,-192.460006713867
195.412,-250.77001953125
195.422,-299.840026855469
195.431,-322.870025634766
195.441,-326.970001220703
195.451,-314.960021972656
195.461,-267.850006103516
195.471,-197.010009765625
195.481,-93.6600036621094
195.491,41.3300018310547
195.501,170.380004882812
195.511,294.660003662109
195.521,407.780029296875
195.531,476.420013427734
195.541,485.170013427734
195.551,431.230010986328
195.561,371.000030517578
195.571,296.800018310547
195.581,230.790008544922
195.591,157.920013427734
195.601,98.870002746582
195.611,52.4600028991699
195.621,29.3600006103516
195.63,29.5000019073486
195.64,27.5800018310547
195.65,30.2000007629395
195.66,40.1400032043457
195.67,56.4200019836426
195.68,56.310001373291
195.69,47.3200035095215
195.7,32.0900001525879
195.71,-28.8700008392334
195.72,-86.0600051879883
195.73,-164.850006103516
195.74,-236.070007324219
195.75,-289.100006103516
195.76,-328.02001953125
195.77,-367.320007324219
195.78,-379.050018310547
195.79,-376.210021972656
195.8,-368.620025634766
195.81,-375.160003662109
195.82,-380.870025634766
195.824,46.4800033569336
195.834,148.120010375977
195.844,213.360015869141
195.854,248.530014038086
195.864,269.990020751953
195.874,289.450012207031
195.884,314.820007324219
195.894,310.480010986328
195.904,271.180023193359
195.914,182.980010986328
195.924,95.3000030517578
195.934,-5.28000020980835
195.944,-132.400009155273
195.954,-260.360015869141
195.964,-355.070007324219
195.974,-390.280029296875
195.982,-392.560028076172
195.992,-369.460021972656
196.002,-299
196.012,-201.880004882812
196.022,-61.0000038146973
196.032,81.8600006103516
196.042,193.550003051758
196.052,271.670013427734
196.062,304.740020751953
196.072,322.840026855469
196.082,351.540008544922
196.092,396.340026855469
196.102,431.440032958984
196.112,463.190032958984
196.122,491.780029296875
196.132,521.0400390625
196.142,531.400024414062
196.152,486.150024414062
196.162,411.250030517578
196.172,304.290008544922
196.181,205.730010986328
196.191,136.290008544922
196.201,80.2200012207031
196.211,62.930004119873
196.221,46.7200012207031
196.231,48.2600021362305
196.241,107.270004272461
196.251,162.150009155273
196.261,204.750015258789
196.271,236.770004272461
196.281,258.75
196.291,291.090026855469
196.301,298.690002441406
196.311,274.120025634766
196.321,215.980010986328
196.331,135.970001220703
196.341,57.8200035095215
196.351,-13.1900005340576
196.361,-83.4000015258789
196.371,-122.67000579834
196.379,-146.889999389648
196.389,-162.43000793457
196.399,-175.170013427734
196.409,-177.730010986328
196.419,-162.120010375977
196.429,-143.389999389648
196.439,-123.130004882812
196.449,-105.380004882812
196.459,-89.4900054931641
196.469,-84.3100051879883
196.479,-86.0300064086914
196.489,-104.580001831055
196.499,-129.920013427734
196.509,-136.360000610352
196.519,-161.870010375977
196.529,-170.760009765625
196.539,-206.360015869141
196.549,-195.580001831055
196.559,-193.790008544922
196.569,-149.100006103516
196.573,-6.54000043869019
196.583,-15.1500005722046
196.593,-20.7900009155273
196.603,-26.2100009918213
196.613,-34.2600021362305
196.623,-29.8500022888184
196.633,-14.8700008392334
196.643,3.81000018119812
196.653,54.560001373291
196.663,89.4600067138672
196.673,110.110008239746
196.683,129.18000793457
196.693,159.910003662109
196.703,176.990005493164
196.713,174.160003662109
196.723,164.600006103516
196.732,143.43000793457
196.742,118.580001831055
196.752,91.8000030517578
196.762,58.1000022888184
196.772,33.8400001525879
196.782,18.5100002288818
196.792,11.9700002670288
196.802,14.0700006484985
196.812,16.6599998474121
196.822,21.3500003814697
196.832,30.480001449585
196.842,42.4500007629395
196.852,37.620002746582
196.862,29.5700016021729
196.872,-5.28000020980835
196.882,-55.5100021362305
196.892,-91.3500061035156
196.902,-123.93000793457
196.912,-152.630004882812
196.922,-167.790008544922
196.931,-165.480010986328
196.941,-144.060012817383
196.951,-111.750007629395
196.961,-94.2200012207031
196.971,-84.2100067138672
196.981,-50.7800025939941
196.991,-1.22000002861023
197.001,43.5700035095215
197.011,78.0100021362305
197.021,108.390007019043
197.031,138.700012207031
197.041,157.950012207031
197.051,154.170013427734
197.061,126.800003051758
197.071,87.8100051879883
197.081,44.8000030517578
197.091,11.4800004959106
197.101,-11.8300008773804
197.111,-36.0100021362305
197.121,-48.680004119873
197.129,-44.7300033569336
197.139,-37.4500007629395
197.149,-18.5500011444092
197.159,-1.6100001335144
197.169,15.5000009536743
197.179,46.2000007629395
197.189,85.0100021362305
197.199,129.290008544922
197.209,168.520004272461
197.219,191.240005493164
197.229,198.030014038086
197.239,203.000015258789
197.249,200.790008544922
197.259,194.140014648438
197.269,154.59001159668
197.279,88.370002746582
197.289,19.1400012969971
197.299,-37.6600036621094
197.309,-97.8600082397461
197.319,-173.740005493164
197.323,-171.390014648438
197.333,-79.7600021362305
197.343,27.6800022125244
197.353,125.020004272461
197.363,206.920013427734
197.373,267.220001220703
197.383,281.5
197.393,270.300018310547
197.403,218.290008544922
197.413,169.710006713867
197.423,127.960006713867
197.433,89.5600051879883
197.443,57.3300018310547
197.453,37.620002746582
197.463,25.4400005340576
197.473,28.310001373291
197.482,9.3100004196167
197.492,-2.45000004768372
197.502,-1.54000008106232
197.512,-7.3100004196167
197.522,-14.5900011062622
197.532,-9.83000087738037
197.542,-10.2900009155273
197.552,22.2200012207031
197.562,73.5
197.572,127.990005493164
197.582,169.150009155273
197.592,203.630004882812
197.602,214.760009765625
197.612,209.720016479492
197.622,174.020004272461
197.632,103.42000579834
197.642,26.0000019073486
197.652,-48.3300018310547
197.662,-110.040008544922
197.672,-145.740005493164
197.681,-177.100006103516
197.691,-209.68000793457
197.701,-212.870010375977
197.711,-169.190002441406
197.721,-103.390007019043
197.731,-41.9600028991699
197.741,26.980001449585
197.751,90.0900039672852
197.761,148.150009155273
197.771,175.940002441406
197.781,174.330001831055
197.791,172.760009765625
197.801,175.070007324219
197.811,176.990005493164
197.821,171.010009765625
197.831,168.000015258789
197.841,136.360000610352
197.851,95.9300079345703
197.861,56.4200019836426
197.871,21.5200004577637
197.879,-35
197.889,-92.1900024414062
197.899,-141.990005493164
197.909,-164.570007324219
197.919,-183.750015258789
197.929,-199.780014038086
197.939,-195.050003051758
197.949,-158.790008544922
197.959,-112.210006713867
197.969,-55.8900032043457
197.979,10.1500005722046
197.989,67.7600021362305
197.999,120.26000213623
198.009,149.900009155273
198.019,185.740005493164
198.029,203.870010375977
198.039,186.230010986328
198.049,156.100006103516
198.059,132.68000793457
198.069,90.370002746582
198.073,-90.3000030517578
198.083,-78.8200073242188
198.093,-45.5700035095215
198.103,-8.15000057220459
198.113,33.810001373291
198.123,78.5
198.133,121.76000213623
198.143,138.630004882812
198.153,152.460006713867
198.163,148.400009155273
198.173,113.68000793457
198.183,64.120002746582
198.193,11.0600004196167
198.203,-42.0300025939941
198.213,-82.2800064086914
198.223,-95.4800033569336
198.232,-103.600006103516
198.242,-82.140007019043
198.252,-69.5400009155273
198.262,-48.6100006103516
198.272,-12.6700010299683
198.282,20.1200008392334
198.292,49.6300010681152
198.302,66.5
198.312,92.2200012207031
198.322,101.18000793457
198.332,89.6300048828125
198.342,72.7300033569336
198.352,72.0300064086914
198.362,72.1300048828125
198.372,66.7800064086914
198.382,68.7700042724609
198.392,65.6600036621094
198.402,63.9800033569336
198.412,70.3800048828125
198.422,72.9400024414062
198.431,56.560001373291
198.441,30.480001449585
198.451,17.9500007629395
198.461,-1.6100001335144
198.471,-44.3800010681152
198.481,-73.25
198.491,-82.8400039672852
198.501,-89.9500045776367
198.511,-86.8300018310547
198.521,-86.5500030517578
198.531,-71.890007019043
198.541,-51.1000022888184
198.551,-25.6200008392334
198.561,11.8300008773804
198.571,48.8200035095215
198.581,73.2900009155273
198.591,82.0700073242188
198.601,105.700004577637
198.611,117.740005493164
198.621,115.01000213623
198.629,108.880004882812
198.639,90.6500015258789
198.649,62.3000030517578
198.659,32.370002746582
198.669,3.81000018119812
198.679,-29.0100021362305
198.689,-56.1700019836426
198.699,-61.9500045776367
198.709,-49.7000007629395
198.719,-37.7600021362305
198.729,-29.1500015258789
198.739,-5.88000011444092
198.749,11.2000007629395
198.759,10.7800006866455
198.769,3.3600001335144
198.779,-0.630000054836273
198.789,1.4300000667572
198.799,11.3400001525879
198.809,34.8900032043457
198.819,38.0800018310547
198.823,-31.810001373291
198.833,-35.5900001525879
198.843,-40.2500038146973
198.853,-34.4000015258789
198.863,-5.39000034332275
198.873,20.6100006103516
198.883,44.4100036621094
198.893,85.4700012207031
198.903,124.740005493164
198.913,128.59001159668
198.923,133.450012207031
198.933,130.620010375977
198.943,99.7800064086914
198.953,64.0100021362305
198.963,34.2600021362305
198.973,-4.23000001907349
198.982,-39.4400024414062
198.992,-47.7400016784668
199.002,-45.2200012207031
199.012,-46.3400039672852
199.022,-39.5500030517578
199.032,-5.32000017166138
199.042,6.23000049591064
199.052,16.2700004577637
199.062,36.2200012207031
199.072,36.7100028991699
199.082,33.1100006103516
199.092,38.9200019836426
199.102,50.6400032043457
199.112,58.8000030517578
199.122,60.0900039672852
199.132,68.8400039672852
199.142,47.0700035095215
199.152,14.4500007629395
199.162,-13.7500009536743
199.172,-49.8400039672852
199.181,-80.5700073242188
199.191,-79.2700042724609
199.201,-65.6600036621094
199.211,-45.9900016784668
199.221,-3.78000020980835
199.231,34.6100006103516
199.241,37.5200004577637
199.251,40.810001373291
199.261,54.2100028991699
199.271,39.060001373291
199.281,4.51000022888184
199.291,-10.9900007247925
199.301,-14.4500007629395
199.311,-14.1000003814697
199.321,-2.66000008583069
199.331,3.57000017166138
199.341,11.7900009155273
199.351,16.2700004577637
199.361,10.5000009536743
199.371,-7.94000053405762
199.379,-17.1800003051758
199.389,-2.87000012397766
199.399,3.60000014305115
199.409,-11.6500005722046
199.419,-18.2000007629395
199.429,-12.1800003051758
199.439,-3.57000017166138
199.449,6.79000043869019
199.459,3.01000022888184
199.469,-15.7800006866455
199.479,-12.4200010299683
199.489,8.05000019073486
199.499,-3.1800000667572
199.509,-16.6200008392334
199.519,-9.69000053405762
199.529,-8.40000057220459
199.539,-5.49000024795532
199.549,1.6100001335144
199.559,-14.3500003814697
199.569,-19.3200016021729
199.573,-28.5900020599365
199.583,-20.4400005340576
199.593,-10.5300006866455
199.603,-12.4900007247925
199.613,-11.4100008010864
199.623,-2.87000012397766
199.633,-10.6400003433228
199.643,-15.7800006866455
199.653,-11.0900001525879
199.663,-12.7000007629395
199.673,-21.0700016021729
199.683,-14.1000003814697
199.693,-0.0700000002980232
199.703,6.65000009536743
199.713,27.7200012207031
199.723,31.6700019836426
199.732,6.72000026702881
199.742,-4.79000043869019
199.752,-23.5500011444092
199.762,-43.2200012207031
199.772,-47.1100006103516
199.782,-47.9800033569336
199.792,-58.3800010681152
199.802,-43.8900032043457
199.812,-18.230001449585
199.822,-3.29000020027161
199.832,15.8200006484985
199.842,30.5200023651123
199.852,21.730001449585
199.862,19.2800006866455
199.872,12.6000003814697
199.882,-12.0400009155273
199.892,-15.2200002670288
199.902,-1.36000001430511
199.912,-1.78000009059906
199.922,1.71000003814697
199.931,-5.5600004196167
199.941,-22.8200016021729
199.951,-21.8700008392334
199.961,-19.560001373291
199.971,-33.5300025939941
199.981,-39.1300010681152
199.991,-15.6400003433228
200.001,-7.28000020980835
200.011,14.3100004196167
200.021,44.2700004577637
200.031,31.1100006103516
200.041,37.8300018310547
200.051,46.9700012207031
200.061,16.6900005340576
200.071,4.20000028610229
200.081,-9.0600004196167
200.091,-37.310001373291
200.101,-22.6800003051758
200.111,18.5500011444092
200.121,33.4900016784668
200.129,73.6700057983398
200.139,87.5000076293945
200.149,78.1900024414062
200.159,93.9400024414062
200.169,95.0600051879883
200.179,72.6900024414062
200.189,62.0500030517578
200.199,36.8900032043457
200.209,20.0200004577637
200.219,29.4700012207031
200.229,22.6100006103516
200.239,23.8300018310547
200.249,32.4099998474121
200.259,19.2800006866455
200.269,3.60000014305115
200.279,-28.730001449585
200.289,-77.9800033569336
200.299,-105.000007629395
200.309,-118.540008544922
200.319,-114.550003051758
200.323,-9.34000015258789
200.333,-28.980001449585
200.343,-72.0600051879883
200.353,-95.5500030517578
200.363,-112.280006408691
200.373,-135.410003662109
200.383,-137.480010986328
200.393,-110.350006103516
200.403,-77
200.413,-20.9300003051758
200.423,22.1500015258789
200.433,46.1300010681152
200.443,80.9500045776367
200.453,102.970001220703
200.463,122.040008544922
200.473,131.139999389648
200.482,130.410003662109
200.492,160.510009765625
200.502,202.890014648438
200.512,224.940017700195
200.522,223.540008544922
200.532,223.650009155273
200.542,204.960006713867
200.552,132.230010986328
200.562,40.6700019836426
200.572,-48.3000030517578
200.582,-142.730010986328
200.592,-220.710006713867
200.602,-265.120025634766
200.612,-313.670013427734
200.622,-370.370025634766
200.632,-406.630004882812
200.642,-423.430023193359
200.652,-449.260009765625
200.662,-440.680023193359
200.672,-412.090026855469
200.68,-382.510009765625
200.69,-317.730010986328
200.7,-220.810012817383
200.71,-116.480003356934
200.72,-24.9500007629395
200.73,61.9100036621094
200.74,124.460006713867
200.75,152.700012207031
200.76,168.560012817383
200.77,168.280014038086
200.78,138.490005493164
200.79,83.1600036621094
200.8,58.4800033569336
200.81,30.730001449585
200.82,-19.1400012969971
200.83,-36.0800018310547
200.84,-42.8400001525879
200.85,-64.1500015258789
200.86,-71.2200012207031
200.87,-52.7400016784668
200.879,-45.4300003051758
200.889,-49.2100028991699
200.899,-25.7200012207031
200.909,4.90000009536743
200.919,29.3300018310547
200.929,70.9800033569336
200.939,138.210006713867
200.949,188.610015869141
200.959,201.000015258789
200.969,192.880004882812
200.979,155.710006713867
200.989,95.5500030517578
200.999,39.5800018310547
201.009,0.630000054836273
201.019,-49.9100036621094
201.029,-87.3200073242188
201.039,-94.8800048828125
201.049,-70.2400054931641
201.059,-41.7200012207031
201.069,-26.6300010681152
201.073,8.96000003814697
201.083,18.230001449585
201.093,29.1900005340576
201.103,40.7000007629395
201.113,57.3600044250488
201.123,79.8000030517578
201.133,87.3200073242188
201.143,98.870002746582
201.153,96.7700042724609
201.163,74.9300003051758
201.173,45.2500038146973
201.183,17.9500007629395
201.193,1.00999999046326
201.203,-0.170000001788139
201.213,22.1200008392334
201.223,57.3300018310547
201.232,104.470001220703
201.242,169.780014038086
201.252,231.240005493164
201.262,243.490005493164
201.272,211.43000793457
201.282,147.280014038086
201.292,66.0100021362305
201.302,-21.3800010681152
201.312,-108.080001831055
201.322,-186.230010986328
201.332,-250.700012207031
201.342,-301.630004882812
201.352,-314.190002441406
201.362,-285.529998779297
201.372,-236.560012817383
201.382,-176.540008544922
201.392,-104.650001525879
201.402,-36.3600006103516
201.412,12.1400003433228
201.422,54.4200019836426
201.43,78.7800064086914
201.44,95.8300018310547
201.45,106.890007019043
201.46,102.620002746582
201.47,103.600006103516
201.48,108.530006408691
201.49,109.720008850098
201.5,91.2100067138672
201.51,78.4700012207031
201.52,69.6800003051758
201.53,33.25
201.54,1.92000007629395
201.55,-25.5500011444092
201.56,-60.2000045776367
201.57,-83.0500030517578
201.58,-84.870002746582
201.59,-102.300003051758
201.6,-109.090003967285
201.61,-126.350006103516
201.62,-127.470008850098
201.629,-114.410003662109
201.639,-69.1900024414062
201.649,-47.9500007629395
201.659,-21.8400001525879
201.669,46.1300010681152
201.679,116.720008850098
201.689,141.190002441406
201.699,144.410003662109
201.709,96.0000076293945
201.719,45.6400032043457
201.729,10.6000003814697
201.739,-42.2800025939941
201.749,-100.240005493164
201.759,-142.970001220703
201.769,-175.420013427734
201.779,-199.110015869141
201.789,-230.160003662109
201.799,-229.770004272461
201.809,-184.660003662109
201.819,-102.690002441406
201.823,150.990005493164
201.833,194.18000793457
201.843,191.620010375977
201.853,140.730010986328
201.863,98.4900054931641
201.873,68.4200057983398
201.883,21.3800010681152
201.893,-28.8400020599365
201.903,-98.1000061035156
201.913,-136.290008544922
201.923,-158.580001831055
201.933,-169.080001831055
201.943,-188.860015869141
201.953,-206.290008544922
201.963,-213.950012207031
201.973,-211.050003051758
201.982,-195.790008544922
201.992,-165.480010986328
202.002,-130.550003051758
202.012,-68
202.022,13.8200006484985
202.032,64.5699996948242
202.042,51.8300018310547
202.052,19.2100009918213
202.062,29.5700016021729
202.072,60.2000045776367
202.082,51.7600021362305
202.092,10.6000003814697
202.102,-57.0800018310547
202.112,-126.520004272461
202.122,-174.860015869141
202.132,-194.770004272461
202.142,-191.59001159668
202.152,-161.450012207031
202.162,-106.820007324219
202.172,-25.3000011444092
202.18,102.830001831055
202.19,210.980010986328
202.2,270.02001953125
202.21,281.540008544922
202.22,267.150024414062
202.23,207.650009155273
202.24,121.830009460449
202.25,8.40000057220459
202.26,-95.9300079345703
202.27,-176.820007324219
202.28,-243.040008544922
202.29,-307.090026855469
202.3,-341.140014648438
202.31,-358.750030517578
202.32,-344.990020751953
202.33,-250.910018920898
202.34,-127.330009460449
202.35,-34.5100021362305
202.36,54.3500022888184
202.37,159.530014038086
202.379,234.080017089844
202.389,272.820007324219
202.399,283.810028076172
202.409,260.010009765625
202.419,194.210006713867
202.429,116.830001831055
202.439,63.3500022888184
202.449,22.4700012207031
202.459,-11.7900009155273
202.469,-34.5100021362305
202.479,-39.9300003051758
202.489,-49.4200019836426
202.499,-60.3000030517578
202.509,-64.3600006103516
202.519,-75.7000045776367
202.529,-96.6300048828125
202.539,-116.720008850098
202.549,-117.530006408691
202.559,-104.540008544922
202.569,-86.4500045776367
202.573,46.3400039672852
202.583,37.9400024414062
202.593,8.53999996185303
202.603,-21.6600017547607
202.613,-31.9900016784668
202.623,-24.2500019073486
202.633,-9.76000022888184
202.643,26.6000003814697
202.653,78.4000015258789
202.663,88.5500030517578
202.673,96.9500045776367
202.683,111.820007324219
202.693,113.400009155273
202.703,90.1600036621094
202.713,48.0900039672852
202.723,23.6200008392334
202.732,0.240000009536743
202.742,-45.3200035095215
202.752,-90.8600006103516
202.762,-94.3200073242188
202.772,-83.8600006103516
202.782,-89.390007019043
202.792,-66.7100067138672
202.802,-43.2900009155273
202.812,-39.6900024414062
202.822,-41.9600028991699
202.832,-35.3500022888184
202.842,-32.1300010681152
202.852,-47.6300010681152
202.862,-42.7300033569336
202.872,-24.2900009155273
202.882,-18.2000007629395
202.892,-12.4900007247925
202.902,12.5600004196167
202.912,28.5900020599365
202.922,25.7900009155273
202.93,33.1800003051758
202.94,57.5400009155273
202.95,59.5700035095215
202.96,44.8000030517578
202.97,36.7800025939941
202.98,23.7600002288818
202.99,-1.92000007629395
203,-11.7600002288818
203.01,-0.350000023841858
203.02,2.76000022888184
203.03,4.65000009536743
203.04,39.9700012207031
203.05,61.5300025939941
203.06,50.8900032043457
203.07,52.1500015258789
203.08,59.7800025939941
203.09,48.7500038146973
203.1,23.4100017547607
203.11,21.2400016784668
203.12,20.9600009918213
203.129,2.45000004768372
203.139,-10.7800006866455
203.149,-8.47000026702881
203.159,-17.5
203.169,10.3900003433228
203.179,74.620002746582
203.189,-23.8300018310547
203.199,-100.940002441406
203.209,-54.7000007629395
203.219,10.8500003814697
203.229,46.6900024414062
203.239,101.080001831055
203.249,63.9100036621094
203.259,-38.3600006103516
203.269,-92.8200073242188
203.279,-48.8200035095215
203.289,-55.1600036621094
203.299,-37.2400016784668
203.309,23.9400005340576
203.319,1.71000003814697
203.323,-84.1000061035156
203.333,12.8100004196167
203.343,33.9099998474121
203.353,-41.9300003051758
203.363,-37.6900024414062
203.373,-2.31000018119812
203.383,-32.4400024414062
203.393,-58.6900024414062
203.403,-2.80000019073486
203.413,3.50000023841858
203.423,33.0699996948242
203.433,41.7900009155273
203.443,37.1700019836426
203.453,59.3600044250488
203.463,109.790008544922
203.473,96.3200073242188
203.482,-67.2000045776367
203.492,-69.7200012207031
203.502,14.7700004577637
203.512,33.9099998474121
203.522,47.6700019836426
203.532,137.200012207031
203.542,69.75
203.552,-49.5900039672852
203.562,20.7500019073486
203.572,129.529998779297
203.582,141.220001220703
203.592,201.84001159668
203.602,209.120010375977
203.612,139.120010375977
203.622,103.320007324219
203.632,68.25
203.642,-63.560001373291
203.652,-182.660003662109
203.662,-136.570007324219
203.672,-63.0300025939941
203.68,-123.300003051758
203.69,-107.200004577637
203.7,-26.5300006866455
203.71,38.3200035095215
203.72,77.4900054931641
203.73,133.910003662109
203.74,157.390014648438
203.75,181.330001831055
203.76,208.980010986328
203.77,221.410003662109
203.78,200.900009155273
203.79,167.09001159668
203.8,163.410003662109
203.81,135.870010375977
203.82,98.9400024414062
203.83,67.5800018310547
203.84,18.230001449585
203.85,-55.5800018310547
203.86,-83.6100006103516
203.87,-99.9600067138672
203.879,-115.950004577637
203.889,-115.040008544922
203.899,-94.2500076293945
203.909,-78.3600006103516
203.919,-51.8300018310547
203.929,-20.7500019073486
203.939,-11.5100002288818
203.949,5.5600004196167
203.959,28.6300010681152
203.969,29.9200019836426
203.979,19.9100017547607
203.989,8.05000019073486
203.999,-16.9000015258789
204.009,-29.0500011444092
204.019,-27.230001449585
204.029,-62.4700012207031
204.039,-93.4800033569336
204.049,-100.830001831055
204.059,-98.870002746582
204.069,-102.830001831055
204.073,-27.230001449585
204.083,-14.6600008010864
204.093,-8.89000034332275
204.103,7.59000015258789
204.113,10.460000038147
204.123,0.590000033378601
204.133,3.99000024795532
204.143,17.0799999237061
204.153,27.0200004577637
204.163,41.7500038146973
204.173,63.7000045776367
204.183,73.390007019043
204.193,91.9800033569336
204.203,118.540008544922
204.213,127.010009765625
204.223,128.170013427734
204.232,141.120010375977
204.242,140.420013427734
204.252,124.140007019043
204.262,121.410003662109
204.272,114.410003662109
204.282,93.5200042724609
204.292,81.5100021362305
204.302,61.0400047302246
204.312,15.2900009155273
204.322,-19.0700016021729
204.332,-33.1100006103516
204.342,-70.5600051879883
204.352,-81.2300033569336
204.362,-82.2800064086914
204.372,-75.140007019043
204.382,-45.1800003051758
204.392,-16.480001449585
204.402,-4.55000019073486
204.412,23.6600017547607
204.422,53.2700042724609
204.43,63.8400039672852
204.44,78.6800003051758
204.45,90.370002746582
204.46,78.120002746582
204.47,62.3000030517578
204.48,43.7500038146973
204.49,1.6100001335144
204.5,-41.0500030517578
204.51,-56.310001373291
204.52,-77.6300048828125
204.53,-86.2400054931641
204.54,-57.5400009155273
204.55,-30.2700023651123
204.56,-10.3200006484985
204.57,28.1700019836426
204.58,45.4600028991699
204.59,39.4400024414062
204.6,46.2700004577637
204.61,46.9700012207031
204.62,39.3400001525879
204.629,18.0200004577637
204.639,2.52000021934509
204.649,-10.7800006866455
204.659,-27.3300018310547
204.669,-33.5300025939941
204.679,-55.6100044250488
204.689,-52.430004119873
204.699,-37.1000022888184
204.709,-33.4900016784668
204.719,-11.4400005340576
204.729,6.37000036239624
204.739,2.03000020980835
204.749,18.7200012207031
204.759,30.5500011444092
204.769,10.1500005722046
204.779,14.5200004577637
204.789,18.9700012207031
204.799,-8.40000057220459
204.809,-16.6200008392334
204.819,-18.2700004577637
204.823,-31.9900016784668
204.833,-27.5100021362305
204.843,-40.3900032043457
204.853,-22.6800003051758
204.863,-4.51000022888184
204.873,-9.55000019073486
204.883,5.84000015258789
204.893,8.99000072479248
204.903,5.88000011444092
204.913,35.1000022888184
204.923,36.75
204.933,27.230001449585
204.943,40.6000022888184
204.953,30.1700019836426
204.963,3.46000027656555
204.973,-9.83000087738037
204.981,-41.4700012207031
204.991,-64.8500061035156
205.001,-47.9100036621094
205.011,-43.0100021362305
205.021,-45.6000022888184
205.031,-16.1300010681152
205.041,-0.21000000834465
205.051,24.9900016784668
205.061,48.7900009155273
205.071,35.1400032043457
205.081,32.2700004577637
205.091,42.8000030517578
205.101,19.7000007629395
205.111,10.2200002670288
205.121,4.01999998092651
205.131,-18.2700004577637
205.141,-23.0300006866455
205.151,-16.6900005340576
205.161,-39.4100036621094
205.171,-36.8200035095215
205.18,-20.1900005340576
205.19,-14.1000003814697
205.2,2.55000019073486
205.21,23.4100017547607
205.22,39.8600006103516
205.23,57.0500030517578
205.24,48.6500015258789
205.25,35.1000022888184
205.26,35.9800033569336
205.27,19.2800006866455
205.28,-1.47000002861023
205.29,-10.9500007629395
205.3,-28.310001373291
205.31,-41.120002746582
205.32,-42.5200004577637
205.33,-51.7600021362305
205.34,-50.0800018310547
205.35,-27.8600006103516
205.36,1.96000003814697
205.37,32.370002746582
205.379,54.0000038146973
205.389,57.1500015258789
205.399,60.7900047302246
205.409,48.5100021362305
205.419,30.6200008392334
205.429,21.8400001525879
205.439,1.54000008106232
205.449,-11.7600002288818
205.459,-8.53999996185303
205.469,-14.8700008392334
205.479,-11.6900005340576
205.489,7.24000024795532
205.499,13.6100006103516
205.509,19.560001373291
205.519,36.8500022888184
205.529,28.8400020599365
205.539,9.80000019073486
205.549,1.85000014305115
205.559,-8.5
205.569,-19.8800010681152
205.573,29.1900005340576
205.583,34.8600006103516
205.593,44.2400016784668
205.603,42.8400001525879
205.613,28.1400012969971
205.623,23.6900005340576
205.633,9.20000076293945
205.643,-2.59000015258789
205.653,5.25000047683716
205.663,-5.88000011444092
205.673,-5.84000015258789
205.683,16.060001373291
205.693,28.0300006866455
205.703,39.5800018310547
205.713,45.6000022888184
205.723,35.3800010681152
205.731,31.9900016784668
205.741,35.0700035095215
205.751,15.2900009155273
205.761,-12.3200006484985
205.771,-3.53000020980835
205.781,-2.27000021934509
205.791,-12.8100004196167
205.801,-9.66000080108643
205.811,6.30000019073486
205.821,16.4500007629395
205.831,23.5900020599365
205.841,28.4200019836426
205.851,13.3000001907349
205.861,0.100000001490116
205.871,-5.39000034332275
205.881,-37.2000007629395
205.891,-72.9400024414062
205.901,-85.120002746582
205.911,-89.7700042724609
205.921,-102.270004272461
205.93,-98.5600051879883
205.94,-73.9900054931641
205.95,-70.2400054931641
205.96,-82.2100067138672
205.97,-82.8100051879883
205.98,-84.9800033569336
205.99,-98.2800064086914
206,-106.43000793457
206.01,-89.0700073242188
206.02,-86.1700057983398
206.03,-92.0500030517578
206.04,-60.060001373291
206.05,-33.7400016784668
206.06,-19.8800010681152
206.07,-0.100000001490116
206.08,23.8000011444092
206.09,21.2800006866455
206.1,11.9000005722046
206.11,16.310001373291
206.12,1.64000010490417
206.129,-17.1500015258789
206.139,-22.2200012207031
206.149,-7.66000032424927
206.159,-1.75000011920929
206.169,-4.0600004196167
206.179,16.6200008392334
206.189,43.5400009155273
206.199,54.1100044250488
206.209,62.0900039672852
206.219,90.9300079345703
206.229,103.42000579834
206.239,92.2600021362305
206.249,83.7500076293945
206.259,76.2600021362305
206.269,43.4300003051758
206.279,2.03000020980835
206.289,-17.25
206.299,-31.2900009155273
206.309,-58.5500030517578
206.319,-76.120002746582
206.323,-99.9200057983398
206.333,-102.200004577637
206.343,-126.450004577637
206.353,-136.010009765625
206.363,-115.460006713867
206.373,-115.640007019043
206.383,-115.290008544922
206.393,-82.7400054931641
206.403,-34.6500015258789
206.413,1.47000002861023
206.423,33.6300010681152
206.433,68.1100006103516
206.443,95.7600021362305
206.453,94.1100082397461
206.463,93.7600021362305
206.473,71.5699996948242
206.481,33.6700019836426
206.491,-4.48000001907349
206.501,-35.6300010681152
206.511,-37.7300033569336
206.521,-20.6100006103516
206.531,-4.0600004196167
206.541,15.8500003814697
206.551,44.2000007629395
206.561,57.2900009155273
206.571,44.2400016784668
206.581,33.1800003051758
206.591,17.8800010681152
206.601,-6.8600001335144
206.611,-27.8200016021729
206.621,-42.2800025939941
206.631,-45.6000022888184
206.641,-48.8600006103516
206.651,-40.8400001525879
206.661,-35.3500022888184
206.671,-18.5500011444092
206.68,-1.00999999046326
206.69,0.380000025033951
206.7,-11.3400001525879
206.71,-16.3400001525879
206.72,-32.5100021362305
206.73,-55.5800018310547
206.74,-74.4400024414062
206.75,-87.640007019043
206.76,-86.4500045776367
206.77,-75.5300064086914
206.78,-47.9500007629395
206.79,-7.80000019073486
206.8,12.9800004959106
206.81,16.6599998474121
206.82,12.3900003433228
206.83,-7.28000020980835
206.84,-20.0500011444092
206.85,-57.680004119873
206.86,-100.17000579834
206.87,-119.210006713867
206.879,-127.750007629395
206.889,-120.220008850098
206.899,-104.890007019043
206.909,-101.530006408691
206.919,-79.3100051879883
206.929,-66.25
206.939,-67.4100036621094
206.949,-86.2000045776367
206.959,-105.450004577637
206.969,-125.020004272461
206.979,-137.020004272461
206.989,-152.110000610352
206.999,-171.360000610352
207.009,-173.18000793457
207.019,-161.100006103516
207.029,-153.720001220703
207.039,-156.800003051758
207.049,-154.380004882812
207.059,-133.350006103516
207.069,-108.43000793457
207.073,-33.3900032043457
207.083,-7.63000059127808
207.093,6.30000019073486
207.103,12.3900003433228
207.113,19.9500007629395
207.123,29.1900005340576
207.133,16.9400005340576
207.143,-8.99000072479248
207.153,-37.3800010681152
207.163,-49.6300010681152
207.173,-62.4400024414062
207.183,-69.4400024414062
207.193,-90.9300079345703
207.203,-107.200004577637
207.213,-113.710006713867
207.223,-114.340003967285
207.231,-108.150001525879
207.241,-72.9700012207031
207.251,-36.5700035095215
207.261,-2.10000014305115
207.271,27.3000011444092
207.281,47.4900016784668
207.291,59.3600044250488
207.301,79.2700042724609
207.311,91.2400054931641
207.321,92.4700012207031
207.331,78.5400009155273
207.341,56.560001373291
207.351,25.6900005340576
207.361,14.9100008010864
207.371,19.8400001525879
207.381,7.66000032424927
207.391,-5.28000020980835
207.401,-0.730000019073486
207.411,10.9500007629395
207.421,38.6700019836426
207.43,78.5
207.44,109.020004272461
207.45,135.34001159668
207.46,156.690002441406
207.47,166.600006103516
207.48,177.130004882812
207.49,157.460006713867
207.5,114.17000579834
207.51,55.7900009155273
207.52,9.66000080108643
207.53,-12.7700004577637
207.54,-20.6800003051758
207.55,-23.1000003814697
207.56,-17.2900009155273
207.57,-17.25
207.58,8.1200008392334
207.59,84.2100067138672
207.6,142.730010986328
207.61,185.810012817383
207.62,208.950012207031
207.629,203.280014038086
207.639,205.130004882812
207.649,165.550003051758
207.659,91.9100036621094
207.669,21.5900001525879
207.679,-54.9100036621094
207.689,-127.260009765625
207.699,-175.910003662109
207.709,-206.990005493164
207.719,-215.560012817383
207.729,-203.210006713867
207.739,-173.700012207031
207.749,-139.440002441406
207.759,-122.080009460449
207.769,-93.3400039672852
207.779,-79.620002746582
207.789,-97.0200042724609
207.799,-122.390007019043
207.809,-152.25
207.819,-171.040008544922
207.823,-143.740005493164
207.833,-109.090003967285
207.843,-58.1000022888184
207.853,-6.79000043869019
207.863,34.6100006103516
207.873,58.6900024414062
207.883,52.9900016784668
207.893,32.2300033569336
207.903,15.8900003433228
207.913,9.27000045776367
207.923,30.2400016784668
207.933,28.2100009918213
207.943,15.9200010299683
207.953,1.29000008106232
207.963,7.70000028610229
207.973,58.5900039672852
207.981,120.640007019043
207.991,135.730010986328
208.001,133.450012207031
208.011,124.560005187988
208.021,124.530006408691
208.031,128.59001159668
208.041,101.220001220703
208.051,55.0900039672852
208.061,-4.93000030517578
208.071,-55.0200042724609
208.081,-87.6000061035156
208.091,-104.050003051758
208.101,-123.020004272461
208.111,-139.960006713867
208.121,-132.260009765625
208.131,-96.4600067138672
208.141,-36.75
208.151,23.730001449585
208.161,48.4400024414062
208.171,72.620002746582
208.18,87.8800048828125
208.19,82.0400009155273
208.2,63.310001373291
208.21,17.5
208.22,-45.3600006103516
208.23,-94.0100021362305
208.24,-126.910003662109
208.25,-135.550003051758
208.26,-134.470001220703
208.27,-116.830001831055
208.28,-73.5699996948242
208.29,-35.8000030517578
208.3,4.30000019073486
208.31,37.2700004577637
208.32,55.120002746582
208.33,65.1300048828125
208.34,61.9800033569336
208.35,47.560001373291
208.36,32.9300003051758
208.37,21.5200004577637
208.379,9.6200008392334
208.389,-4.16000032424927
208.399,-20.3300018310547
208.409,-41.6100006103516
208.419,-58.9700012207031
208.429,-77.0300064086914
208.439,-115.080001831055
208.449,-145.25
208.459,-167.330001831055
208.469,-174.400009155273
208.479,-152.140014648438
208.489,-119.310005187988
208.499,-76.0900039672852
208.509,-31.1800022125244
208.519,2.76000022888184
208.529,38.1500015258789
208.539,61.810001373291
208.549,65.6900024414062
208.559,56.1700019836426
208.569,35.8000030517578
208.573,97.9600067138672
208.583,83.5800018310547
208.593,61.5300025939941
208.603,39.9000015258789
208.613,12.4900007247925
208.623,-31.7800006866455
208.633,-77.3100051879883
208.643,-109.860008239746
208.653,-111.720008850098
208.663,-105.660003662109
208.673,-116.130004882812
208.683,-117.490005493164
208.693,-95.7600021362305
208.703,-69.5400009155273
208.713,-67.620002746582
208.723,-68.9100036621094
208.731,-65.1700057983398
208.741,-53.4400024414062
208.751,-36.6400032043457
208.761,-32.060001373291
208.771,-35.7700004577637
208.781,-40.6000022888184
208.791,-25.0900020599365
208.801,-13.7200002670288
208.811,-19.7400016784668
208.821,-18.6200008392334
208.831,-8.96000003814697
208.841,19.7400016784668
208.851,30.6200008392334
208.861,35.1000022888184
208.871,27.5400009155273
208.881,25.9000015258789
208.891,26.4200019836426
208.901,8.89000034332275
208.911,-7.98000049591064
208.921,-22.4300003051758
208.93,-24.4300003051758
208.94,-13.1200008392334
208.95,-11.7600002288818
208.96,-8.61000061035156
208.97,1.64000010490417
208.98,16.730001449585
208.99,27.2600021362305
209,28.980001449585
209.01,17.0799999237061
209.02,1.33000004291534
209.03,-16.8299999237061
209.04,-41.4000015258789
209.05,-64.2600021362305
209.06,-83.8600006103516
209.07,-98.2100067138672
209.08,-101.320007324219
209.09,-93.4500045776367
209.1,-71.7100067138672
209.11,-47.1400032043457
209.12,-28.8400020599365
209.129,1.57000005245209
209.139,32.370002746582
209.149,44.9400024414062
209.159,44.1000022888184
209.169,42.1400032043457
209.179,46.1300010681152
209.189,44.2400016784668
209.199,38.6000022888184
209.209,21.7000007629395
209.219,4.16000032424927
209.229,-2.83000016212463
209.239,-18.5100002288818
209.249,-40.9800033569336
209.259,-65.2700042724609
209.269,-66.8500061035156
209.279,-51.620002746582
209.289,-30.1300010681152
209.299,-27.6500015258789
209.309,-9.45000076293945
209.319,16.5200004577637
209.323,-14.1400003433228
209.333,-24.5300006866455
209.343,-39.8300018310547
209.353,-41.1600036621094
209.363,-38.4600028991699
209.373,-15.1900005340576
209.383,8.15000057220459
209.393,24.7100009918213
209.403,47.7700004577637
209.413,49.5200004577637
209.423,32.6900024414062
209.433,25.6500015258789
209.443,16.3400001525879
209.453,-16.9400005340576
209.463,-40.1800003051758
209.473,-44.1300010681152
209.481,-32.2700004577637
209.491,-18.9700012207031
209.501,-12.9100008010864
209.511,-0.730000019073486
209.521,29.8900012969971
209.531,51.310001373291
209.541,47.3200035095215
209.551,35
209.561,35.6300010681152
209.571,25.2700004577637
209.581,-5.53000020980835
209.591,-35.4200019836426
209.601,-37.060001373291
209.611,-42.1000022888184
209.621,-55.7200012207031
209.631,-49.9400024414062
209.641,-34.6500015258789
209.651,-19.9100017547607
209.661,-18.5800018310547
209.671,-11.0900001525879
209.68,14.3100004196167
209.69,30.4500007629395
209.7,20.7200012207031
209.71,12.0000009536743
209.72,18.0200004577637
209.73,25.7900009155273
209.74,8.19000053405762
209.75,-2.69000005722046
209.76,-4.13000011444092
209.77,-10.460000038147
209.78,-30.0300006866455
209.79,-34.4400024414062
209.8,-37.2700004577637
209.81,-34.8600006103516
209.82,-32.5500030517578
209.83,-10.3600006103516
209.84,22.1200008392334
209.85,34.4700012207031
209.86,19.5300006866455
209.87,14.0300006866455
209.874,-70.4900054931641
209.884,-64.8899993896484
209.894,-63.3500022888184
209.904,-46.5800018310547
209.914,-22.6800003051758
209.924,-13.6500005722046
209.934,-1.6800000667572
209.944,26.6700019836426
209.954,50.1900024414062
209.964,52.1500015258789
209.974,53.2000007629395
209.984,54.180004119873
209.994,41.2300033569336
210.004,16.1300010681152
210.014,2.87000012397766
210.024,-15.0800008773804
210.032,-34.7200012207031
210.042,-59.0100021362305
210.052,-53.8300018310547
210.062,-37.2000007629395
210.072,-23.3400020599365
210.082,0.100000001490116
210.092,46.1300010681152
210.102,74.9000015258789
210.112,80.9500045776367
210.122,82.9100036621094
210.132,69.7200012207031
210.142,33.8800010681152
210.152,-1.75000011920929
210.162,-9.10000038146973
210.172,-23.730001449585
210.182,-42.7700004577637
210.192,-39.2300033569336
210.202,-24.4300003051758
210.212,-30.310001373291
210.222,-40.3900032043457
210.231,-20.9300003051758
210.241,-1.33000004291534
210.251,-5.8100004196167
210.261,6.65000009536743
210.271,30.6200008392334
210.281,25.230001449585
210.291,18.5500011444092
210.301,20.8600006103516
210.311,16.5500011444092
210.321,4.23000001907349
210.331,13.7200002670288
210.341,19.8400001525879
210.351,12.6300010681152
210.361,15.4700002670288
210.371,16.3800010681152
210.381,9.59000015258789
210.391,-1.12000000476837
210.401,0.940000057220459
210.411,11.3000001907349
210.421,-0.660000026226044
210.43,-16.060001373291
210.44,-9.59000015258789
210.45,-4.51000022888184
210.46,-4.23000001907349
210.47,7.52000045776367
210.48,12.2500009536743
210.49,9.94000053405762
210.5,30.730001449585
210.51,37.8300018310547
210.52,18.1300010681152
210.53,6.12000036239624
210.54,5.49000024795532
210.55,-5.39000034332275
210.56,-18.2700004577637
210.57,-13.0200004577637
210.58,-2.13000011444092
210.59,3.92000007629395
210.6,11.6200008392334
210.61,4.51000022888184
210.62,-4.44000005722046
210.624,27.0900020599365
210.634,26.3500003814697
210.644,8.96000003814697
210.654,1.05000007152557
210.664,-1.22000002861023
210.674,-3.50000023841858
210.684,11.5100002288818
210.694,19.7700004577637
210.704,16.4500007629395
210.714,4.37000036239624
210.724,8.75
210.734,28.9400005340576
210.744,32.3000030517578
210.754,22.6800003051758
210.764,14.2100009918213
210.774,11.3000001907349
210.782,14.5900011062622
210.792,17.6400012969971
210.802,11.6900005340576
210.812,7.45000028610229
210.822,21.4500007629395
210.832,19
210.842,10.460000038147
210.852,35.4500007629395
210.862,57.2900009155273
210.872,52.3200035095215
210.882,59.8800010681152
210.892,75.5600051879883
210.902,80.640007019043
210.912,95.7200012207031
210.922,93.3100051879883
210.932,46.930004119873
210.942,4.93000030517578
210.952,-6.33000040054321
210.962,-17.8800010681152
210.972,-18.3000011444092
210.981,1.64000010490417
210.991,14.9800004959106
211.001,25.1600017547607
211.011,50.9200019836426
211.021,51.620002746582
211.031,41.4000015258789
211.041,58.2700042724609
211.051,68.3500061035156
211.061,72.3800048828125
211.071,76.0500030517578
211.081,84.7700042724609
211.091,73.1100006103516
211.101,71.4300003051758
211.111,72.9700012207031
211.121,69.0500030517578
211.131,64.5699996948242
211.141,73.9200057983398
211.151,92.9600067138672
211.161,113.850006103516
211.171,118.090003967285
211.18,101.640007019043
211.19,52.6400032043457
211.2,12.2100009918213
211.21,16.0300006866455
211.22,-13.6100006103516
211.23,-65.870002746582
211.24,-70.4200057983398
211.25,-77.3500061035156
211.26,-99.7500076293945
211.27,-81.9700012207031
211.28,-67.4400024414062
211.29,-85.9900054931641
211.3,-90.5400009155273
211.31,-98.8000030517578
211.32,-100.970001220703
211.33,-104.820007324219
211.34,-98.7700042724609
211.35,-95.4800033569336
211.36,-140.630004882812
211.37,-142.690002441406
211.375,100.410003662109
211.385,147.660003662109
211.395,193.370010375977
211.405,192.110015869141
211.415,169.080001831055
211.425,155.290008544922
211.435,158.620010375977
211.445,131.210006713867
211.455,112.520004272461
211.465,111.020004272461
211.475,87.7400054931641
211.485,72.2000045776367
211.495,76.890007019043
211.505,90.6800079345703
211.515,108.740005493164
211.525,148.920013427734
211.532,175.660003662109
211.542,143.110000610352
211.552,143.320007324219
211.562,115.570007324219
211.572,42.4500007629395
211.582,-26.0000019073486
211.592,-68
211.602,-130.510009765625
211.612,-158.580001831055
211.622,-170.970001220703
211.632,-194.490005493164
211.642,-192.850006103516
211.652,-200.860015869141
211.662,-177.940002441406
211.672,-145.770004272461
211.682,-104.93000793457
211.692,-29.7500019073486
211.702,26.0000019073486
211.712,70.4900054931641
211.722,108.640007019043
211.731,141.540008544922
211.741,128.240005493164
211.751,97.6100082397461
211.761,125.300003051758
211.771,156.620010375977
211.781,183.780014038086
211.791,247.830017089844
211.801,312.720001220703
211.811,381.810028076172
211.821,451.220031738281
211.831,489.610015869141
211.841,450.130035400391
211.851,359.130004882812
211.861,262.529998779297
211.871,175.170013427734
211.881,68.7700042724609
211.891,-27.230001449585
211.901,-113.150009155273
211.911,-179.34001159668
211.921,-195.230010986328
211.93,-183.120010375977
211.94,-180.280014038086
211.95,-163.690002441406
211.96,-119.280006408691
211.97,-101.570007324219
211.98,-90.1600036621094
211.99,-92.890007019043
212,-97.1600036621094
212.01,-84.140007019043
212.02,-62.8600044250488
212.03,-45.9200019836426
212.04,-49.2800025939941
212.05,-45.3600006103516
212.06,-10.9200000762939
212.07,-12.4200010299683
212.08,-20.4400005340576
212.09,-40.0700035095215
212.1,-73.2200012207031
212.11,-100.900001525879
212.12,-146.820007324219
212.124,-192.950012207031
212.134,-143.460006713867
212.144,-86.0600051879883
212.154,-22.1200008392334
212.164,52.5000038146973
212.174,118.400009155273
212.184,164.570007324219
212.194,184.34001159668
212.204,189.520004272461
212.214,201.490005493164
212.224,179.34001159668
212.234,142.870010375977
212.244,93.3800048828125
212.254,74.5500030517578
212.264,87.2900009155273
212.274,113.570007324219
212.282,151.230010986328
212.292,192.360015869141
212.302,247.410018920898
212.312,291.060028076172
212.322,341.77001953125
212.332,354.650024414062
212.342,324.100006103516
212.352,266.140014648438
212.362,213.360015869141
212.372,160.540008544922
212.382,74.8300018310547
212.392,-0.660000026226044
212.402,-74.2000045776367
212.412,-107.550003051758
212.422,-125.230003356934
212.432,-152.18000793457
212.442,-186.200012207031
212.452,-175.310012817383
212.462,-160.020004272461
212.472,-138.490005493164
212.481,-125.580009460449
212.491,-109.160003662109
212.501,-121.100006103516
212.511,-103.840003967285
212.521,-96.140007019043
212.531,-93.7600021362305
212.541,-95.7600021362305
212.551,-92.0800018310547
212.561,-96.0400009155273
212.571,-98.4500045776367
212.581,-96.6700057983398
212.591,-100.590003967285
212.601,-84.3800048828125
212.611,-59.5000038146973
212.621,-23.9000015258789
212.631,7.5600004196167
212.641,31.8800010681152
212.651,58.3400039672852
212.661,68.8400039672852
212.671,91.3100051879883
212.68,128.200012207031
212.69,157.990005493164
212.7,180.280014038086
212.71,197.260009765625
212.72,195.230010986328
212.73,194.070007324219
212.74,188.510009765625
212.75,160.750015258789
212.76,110.000007629395
212.77,21.4200000762939
212.78,-23.1300010681152
212.79,-53.4800033569336
212.8,-75.5300064086914
212.81,-129.810012817383
212.82,-154.520004272461
212.83,-174.650009155273
212.84,-176.150009155273
212.85,-181.960006713867
212.86,-166.980010986328
212.87,-155.360000610352
212.874,-24.810001373291
212.884,-20.4400005340576
212.894,-13.0900001525879
212.904,3.85000014305115
212.914,16.6599998474121
212.924,27.9600009918213
212.934,42.0700035095215
212.944,57.4700012207031
212.954,57.8200035095215
212.964,57.9200019836426
212.974,72.1700057983398
212.984,93.4100036621094
212.994,105.560005187988
213.004,110.140007019043
213.014,134.400009155273
213.024,160.960006713867
213.032,183.120010375977
213.042,175.240005493164
213.052,158.830001831055
213.062,121.800003051758
213.072,94.8100051879883
213.082,72.620002746582
213.092,57.5000038146973
213.102,29.0500011444092
213.112,-21.4500007629395
213.122,-84.4500045776367
213.132,-131.670013427734
213.142,-141.570007324219
213.152,-145.670013427734
213.162,-126.070007324219
213.172,-91.3100051879883
213.182,-17.2900009155273
213.192,79.6600036621094
213.202,165.93000793457
213.212,231.170013427734
213.222,284.580017089844
213.231,293.510009765625
213.241,305.440002441406
213.251,323.010009765625
213.261,357.170013427734
213.271,358.890014648438
213.281,316.920013427734
213.291,252.450012207031
213.301,139.720001220703
213.311,64.2200012207031
213.321,1.22000002861023
213.331,-84.5900039672852
213.341,-152.350006103516
213.351,-211.220016479492
213.361,-235.410003662109
213.371,-210.140014648438
213.381,-155.540008544922
213.391,-71.75
213.401,-4.65000009536743
213.411,53.5500030517578
213.421,125.090003967285
213.43,163.240005493164
213.44,190.400009155273
213.45,209.750015258789
213.46,206.010009765625
213.47,165.410003662109
213.48,110.840003967285
213.49,29.2200012207031
213.5,-83.1900024414062
213.51,-172.200012207031
213.52,-220.150009155273
213.53,-222.040008544922
213.54,-190.120010375977
213.55,-153.540008544922
213.56,-88.5800018310547
213.57,-17.3900012969971
213.58,41.6500015258789
213.59,78.9200057983398
213.6,106.43000793457
213.61,90.4700012207031
213.62,51.8000030517578
213.624,-56.1400032043457
213.634,-28.8000011444092
213.644,-5.91000032424927
213.654,13.5100002288818
213.664,38.0100021362305
213.674,54.0700035095215
213.684,75.2800064086914
213.694,86.7300033569336
213.704,77.3800048828125
213.714,47.1100006103516
213.724,16.2400016784668
213.734,21.9400005340576
213.744,31.8500022888184
213.754,41.5800018310547
213.764,58.060001373291
213.774,92.6800079345703
213.782,134.610000610352
213.792,156.170013427734
213.802,148.610000610352
213.812,109.690002441406
213.822,57.6100044250488
213.832,8.71000003814697
213.842,-55.2600021362305
213.852,-134.820007324219
213.862,-194.000015258789
213.872,-202.09001159668
213.882,-162.750015258789
213.892,-106.68000793457
213.902,1.57000005245209
213.912,103.840003967285
213.922,190.050003051758
213.932,241.360015869141
213.942,262.880004882812
213.952,236.070007324219
213.962,169.68000793457
213.972,102.580001831055
213.981,21.7000007629395
213.991,-70.3800048828125
214.001,-150.850006103516
214.011,-187.18000793457
214.021,-166.84001159668
214.031,-120.360008239746
214.041,-56.3800010681152
214.051,17.3200016021729
214.061,58.5500030517578
214.071,81.4800033569336
214.081,115.390007019043
214.091,149.310012817383
214.101,134.5
214.111,82.4200057983398
214.121,19.6700000762939
214.131,-28.4900016784668
214.141,-50.7800025939941
214.151,-55.0200042724609
214.161,-46.2300033569336
214.171,-44.870002746582
214.179,-13.7500009536743
214.189,16.0300006866455
214.199,40.6300010681152
214.209,56.6300010681152
214.219,63.9400024414062
214.229,46.370002746582
214.239,1.47000002861023
214.249,-38.1100006103516
214.259,-70.140007019043
214.269,-103.42000579834
214.279,-118.020004272461
214.289,-94.0800018310547
214.299,-45.1800003051758
214.309,6.37000036239624
214.319,65.9400024414062
214.329,109.76000213623
214.339,123.440002441406
214.349,150.43000793457
214.359,168.520004272461
214.369,138.110000610352
214.373,-116.230003356934
214.383,-126.910003662109
214.393,-112.910003662109
214.403,-74.370002746582
214.413,-6.33000040054321
214.423,39.4100036621094
214.433,83.6500015258789
214.443,123.090003967285
214.453,141.990005493164
214.463,140.700012207031
214.473,111.400001525879
214.483,71.4000015258789
214.493,24.6000003814697
214.503,10.6000003814697
214.513,12.1100006103516
214.523,4.90000009536743
214.532,2.66000008583069
214.542,0.800000011920929
214.552,8.19000053405762
214.562,13.3300008773804
214.572,25.0200004577637
214.582,27.3000011444092
214.592,23.5500011444092
214.602,23.6900005340576
214.612,38.8500022888184
214.622,23.3400020599365
214.632,7.35000038146973
214.642,-1.00999999046326
214.652,-23.2000007629395
214.662,-13.3300008773804
214.672,5.25000047683716
214.682,10.2900009155273
214.692,14.1700010299683
214.702,17.5
214.712,0.0300000011920929
214.722,-30.5900020599365
214.731,-53.5100021362305
214.741,-82.3500061035156
214.751,-98.7300033569336
214.761,-81.5500030517578
214.771,-58.3400039672852
214.781,-33.3199996948242
214.791,7.91000032424927
214.801,60.0200042724609
214.811,80.8100051879883
214.821,106.990005493164
214.831,121.030006408691
214.841,112.450004577637
214.851,87.4600067138672
214.861,66.25
214.871,29.9600009918213
214.881,-0.100000001490116
214.891,-9.6200008392334
214.901,-26.2100009918213
214.911,-24.0400009155273
214.921,12.1800003051758
214.929,60.0200042724609
214.939,101.460006713867
214.949,149.690002441406
214.959,183.080001831055
214.969,190.150009155273
214.979,194.560012817383
214.989,177.870010375977
214.999,124.560005187988
215.009,63.8000030517578
215.019,-0.660000026226044
215.029,-55.0500030517578
215.039,-99.120002746582
215.049,-150.670013427734
215.059,-173.490005493164
215.069,-207.020004272461
215.079,-236.000015258789
215.089,-244.610015869141
215.099,-246.610015869141
215.109,-216.330017089844
215.119,-177.970001220703
215.123,119.560005187988
215.133,154.070007324219
215.143,154.770004272461
215.153,157.670013427734
215.163,145.670013427734
215.173,105.770004272461
215.183,80.0400009155273
215.193,61.6000022888184
215.203,35.2400016784668
215.213,26.2100009918213
215.223,26.0400009155273
215.233,11.1600008010864
215.243,1.96000003814697
215.253,2.80000019073486
215.263,-8.61000061035156
215.273,-6.79000043869019
215.282,3.60000014305115
215.292,-6.68000030517578
215.302,1.4300000667572
215.312,19.3200016021729
215.322,8.92000007629395
215.332,4.65000009536743
215.342,16.2400016784668
215.352,9.80000019073486
215.362,4.23000001907349
215.372,7.1700005531311
215.382,13.7500009536743
215.392,28.1400012969971
215.402,47.8400039672852
215.412,42.7000007629395
215.422,40.8800010681152
215.432,41.8200035095215
215.442,33
215.452,16.3400001525879
215.462,5.70000028610229
215.472,-14.4500007629395
215.481,-19.1100006103516
215.491,-7.5600004196167
215.501,-0.910000026226044
215.511,-2.31000018119812
215.521,2.87000012397766
215.531,0.520000040531158
215.541,-5.18000030517578
215.551,-6.33000040054321
215.561,-19.6700000762939
215.571,-39.9000015258789
215.581,-44.6600036621094
215.591,-42.310001373291
215.601,-37.620002746582
215.611,-28.310001373291
215.621,-23.7600002288818
215.631,-6.89000034332275
215.641,14.8000011444092
215.651,15.5400009155273
215.661,15.9600009918213
215.671,21.2400016784668
215.679,25.5100021362305
215.689,20.3700008392334
215.699,16.9700012207031
215.709,10.4300003051758
215.719,15.4700002670288
215.729,29.5000019073486
215.739,31.7400016784668
215.749,35.3800010681152
215.759,35.870002746582
215.769,30.8300018310547
215.779,24.5700016021729
215.789,0.380000025033951
215.799,-40.7400016784668
215.809,-22.9600009918213
215.819,-17.5300006866455
215.829,-24.5700016021729
215.839,-27.0900020599365
215.849,-36.1900024414062
215.859,-44.620002746582
215.869,-36.9900016784668
215.873,-83.3000030517578
215.883,-89.9100036621094
215.893,-93.9000015258789
215.903,-107.380004882812
215.913,-105.070007324219
215.923,-116.090003967285
215.933,-110.700004577637
215.943,-95.2300033569336
215.953,-98.2100067138672
215.963,-107.270004272461
215.973,-91.9800033569336
215.983,-84.3800048828125
215.993,-101.110008239746
216.003,-108.320007324219
216.013,-99.8500061035156
216.023,-105.310005187988
216.032,-99.4300079345703
216.042,-73.0100021362305
216.052,-54.2800025939941
216.062,-29.0800018310547
216.072,0.140000000596046
216.082,7.98000049591064
216.092,14.3800010681152
216.102,46.8300018310547
216.112,48.7200012207031
216.122,41.7200012207031
216.132,50.9200019836426
216.142,52.9900016784668
216.152,41.4700012207031
216.162,39.2000007629395
216.172,41.7500038146973
216.182,40.6700019836426
216.192,45.3900032043457
216.202,61.2100028991699
216.212,86.2400054931641
216.222,116.410003662109
216.231,148.990005493164
216.241,171.950012207031
216.251,178.18000793457
216.261,168.630004882812
216.271,144.760009765625
216.281,89.2100067138672
216.291,32.5800018310547
216.301,10.8500003814697
216.311,4.30000019073486
216.321,-19.6300010681152
216.331,-46.4100036621094
216.341,-54.8400039672852
216.351,-53.5100021362305
216.361,-36.120002746582
216.371,-0.100000001490116
216.381,29.8500022888184
216.391,70.9800033569336
216.401,134.610000610352
216.411,187.600006103516
216.421,232.850006103516
216.429,266.350006103516
216.439,303.27001953125
216.449,287.52001953125
216.459,232.080017089844
216.469,191.170013427734
216.479,166.530014038086
216.489,162.960006713867
216.499,129.150009155273
216.509,115.110008239746
216.519,100.060005187988
216.529,69.5100021362305
216.539,40.1400032043457
216.549,16.730001449585
216.559,2.10000014305115
216.569,-17.7400016784668
216.579,-27.9600009918213
216.589,-35.8400001525879
216.599,-59.6000022888184
216.609,-88.8300018310547
216.619,-89.9100036621094
216.623,24.5000019073486
216.633,38.7100028991699
216.643,62.5100021362305
216.653,99.0800018310547
216.663,120.400009155273
216.673,121.690002441406
216.683,118.370002746582
216.693,115.880004882812
216.703,107.480003356934
216.713,67.3400039672852
216.723,26.6000003814697
216.733,12.0700006484985
216.743,-6.05000019073486
216.753,-22.4300003051758
216.763,-21.560001373291
216.773,-31.6000022888184
216.782,-30.3800010681152
216.792,-13.0500001907349
216.802,-1.89000010490417
216.812,21.2800006866455
216.822,45.3600006103516
216.832,53.5100021362305
216.842,74.3000030517578
216.852,97.6800079345703
216.862,112.840003967285
216.872,128.270004272461
216.882,161.980010986328
216.892,184.59001159668
216.902,180.950012207031
216.912,178.460006713867
216.922,179.860015869141
216.932,162.470001220703
216.942,122.220008850098
216.952,74.7600021362305
216.962,43.7500038146973
216.972,29.4700012207031
216.981,16.480001449585
216.991,-0.700000047683716
217.001,-3.74000024795532
217.011,5.70000028610229
217.021,32.5100021362305
217.031,48.3000030517578
217.041,34.0200004577637
217.051,31.0400009155273
217.061,38.4600028991699
217.071,40.1100006103516
217.081,33.7700004577637
217.091,21.0000019073486
217.101,16.6900005340576
217.111,36.120002746582
217.121,47.0000038146973
217.131,53.9700012207031
217.141,53.370002746582
217.151,79.9700012207031
217.161,94.0400009155273
217.171,95.620002746582
217.179,78.8200073242188
217.189,41.8600006103516
217.199,11.0200004577637
217.209,-33
217.219,-70.5900039672852
217.229,-106.570007324219
217.239,-125.26000213623
217.249,-111.300003051758
217.259,-121.17000579834
217.269,-122.360008239746
217.279,-98.5900039672852
217.289,-63.0000038146973
217.299,-38.3600006103516
217.309,-32.4099998474121
217.319,-6.26000022888184
217.329,26.9500007629395
217.339,68.7000045776367
217.349,113.890007019043
217.359,139.09001159668
217.369,178.18000793457
217.373,318.880004882812
217.383,329.590026855469
217.393,330.750030517578
217.403,297.880004882812
217.413,269.779998779297
217.423,242.93000793457
217.433,217.940017700195
217.443,191.170013427734
217.453,135.060012817383
217.463,84.3500061035156
217.473,42.870002746582
217.483,19.5300006866455
217.493,2.55000019073486
217.503,-21.1000003814697
217.513,-40.6300010681152
217.523,-55.2600021362305
217.532,-41.2300033569336
217.542,-21.8400001525879
217.552,-14.5200004577637
217.562,-2.34000015258789
217.572,13.4400005340576
217.582,39.0900001525879
217.592,64.1900024414062
217.602,63.1400032043457
217.612,56.6300010681152
217.622,39.4400024414062
217.632,38.0100021362305
217.642,45.7400016784668
217.652,37.6900024414062
217.662,10.3900003433228
217.672,-20.4000015258789
217.682,-48.6500015258789
217.692,-67.4800033569336
217.702,-88.9700012207031
217.712,-113.960006713867
217.722,-153.260009765625
217.731,-183.120010375977
217.741,-183.750015258789
217.751,-181.860015869141
217.761,-171.150009155273
217.771,-157.600006103516
217.781,-130.270004272461
217.791,-86.2000045776367
217.801,-42.4900016784668
217.811,10.1800003051758
217.821,57.120002746582
217.831,82.8800048828125
217.841,111.860008239746
217.851,122.640007019043
217.861,116.860008239746
217.871,107.620002746582
217.881,84.0300064086914
217.891,46.6500015258789
217.901,22.6800003051758
217.911,11.0200004577637
217.921,-4.48000001907349
217.929,5.63000011444092
217.939,30.5200023651123
217.949,47.2100028991699
217.959,66.0800018310547
217.969,71.890007019043
217.979,66.0800018310547
217.989,55.1900024414062
217.999,47.1400032043457
218.009,32.2300033569336
218.019,6.33000040054321
218.029,-17.9500007629395
218.039,-27.7900009155273
218.049,-25.8600006103516
218.059,-15.5700006484985
218.069,-34.5100021362305
218.079,-72.4100036621094
218.089,-83.4700012207031
218.099,-120.500007629395
218.109,-115.220008850098
218.119,-115.290008544922
218.123,-154.630004882812
218.133,-152.420013427734
218.143,-143.600006103516
218.153,-105.560005187988
218.163,-58.5200042724609
218.173,-3.08000016212463
218.183,56.7000045776367
218.193,109.970008850098
218.203,160.09001159668
218.213,186.440002441406
218.223,213.780014038086
218.233,239.850006103516
218.243,249.580017089844
218.253,274.920013427734
218.263,282.900024414062
218.273,239.820007324219
218.282,170.240005493164
218.292,107.060005187988
218.302,34.6800003051758
218.312,-45.3200035095215
218.322,-106.990005493164
218.332,-166.880004882812
218.342,-207.830017089844
218.352,-200.93000793457
218.362,-181.09001159668
218.372,-143.320007324219
218.382,-75.6700057983398
218.392,14.5200004577637
218.402,104.650001525879
218.412,189.730010986328
218.422,252.030014038086
218.432,306.840026855469
218.442,362.840026855469
218.452,380.940032958984
218.462,372.430023193359
218.472,336.560028076172
218.48,287.870025634766
218.49,241.600006103516
218.5,198.760009765625
218.51,148.850006103516
218.52,76.7900009155273
218.53,17.9900016784668
218.54,-36.3600006103516
218.55,-79.1000061035156
218.56,-105.490005493164
218.57,-113.220008850098
218.58,-129.18000793457
218.59,-135.620010375977
218.6,-130.300003051758
218.61,-101.18000793457
218.62,-53.2700042724609
218.63,-16.060001373291
218.64,2.59000015258789
218.65,16.1000003814697
218.66,31.9200019836426
218.67,44.1000022888184
218.679,44.1700019836426
218.689,15.1900005340576
218.699,-26.6000003814697
218.709,-56.9800033569336
218.719,-66.2900009155273
218.729,-60.7200012207031
218.739,-52.8800010681152
218.749,-34.7900009155273
218.759,-16.1300010681152
218.769,1.29000008106232
218.779,23.3400020599365
218.789,22.0100002288818
218.799,12.4200010299683
218.809,-1.57000005245209
218.819,-22.7100009918213
218.829,-26.7700004577637
218.839,-24.8800010681152
218.849,-9.38000011444092
218.859,29.8900012969971
218.869,79.620002746582
218.873,288.75
218.883,249.440017700195
218.893,182.280014038086
218.903,95.2300033569336
218.913,11.0600004196167
218.923,-44.2000007629395
218.933,-106.710006713867
218.943,-159.740005493164
218.953,-181.750015258789
218.963,-175.800003051758
218.973,-152.700012207031
218.983,-112.590003967285
218.993,-73.8500061035156
219.003,-54.9100036621094
219.013,-38.5300025939941
219.023,-20.4700012207031
219.032,-13.0200004577637
219.042,-7.70000028610229
219.052,-15.9200010299683
219.062,-16.5500011444092
219.072,-10.5700006484985
219.082,-5.77000045776367
219.092,10.6400003433228
219.102,17.1800003051758
219.112,18.9700012207031
219.122,30.6900005340576
219.132,39.370002746582
219.142,55.9600028991699
219.152,66.4300003051758
219.162,69.7200012207031
219.172,70.8000030517578
219.182,73.7800064086914
219.192,78.9900054931641
219.202,82.1100006103516
219.212,81.0600051879883
219.222,68.1100006103516
219.23,61.4600028991699
219.24,63.1400032043457
219.25,66.7800064086914
219.26,70.4900054931641
219.27,68.140007019043
219.28,69.7200012207031
219.29,85.2900009155273
219.3,91.7300033569336
219.31,92.2600021362305
219.32,79.4800033569336
219.33,53.930004119873
219.34,39.2300033569336
219.35,27.7200012207031
219.36,20.0200004577637
219.37,12.1800003051758
219.38,1.99000012874603
219.39,10.6000003814697
219.4,18.2700004577637
219.41,27.3700008392334
219.42,31.810001373291
219.429,16.8700008392334
219.439,12.3900003433228
219.449,19.3500003814697
219.459,24.7800006866455
219.469,24.3600006103516
219.479,23.730001449585
219.489,30.8300018310547
219.499,49.9100036621094
219.509,67.1300048828125
219.519,69.2300033569336
219.529,61.0000038146973
219.539,49.2400016784668
219.549,37.0300025939941
219.559,32.7600021362305
219.569,18.1600017547607
219.579,-0.800000011920929
219.589,7.03000020980835
219.599,25.5500011444092
219.609,46.9700012207031
219.619,69.2300033569336
219.623,30.3800010681152
219.633,-14.9800004959106
219.643,-51.1700019836426
219.653,-52.7800025939941
219.663,-45.4600028991699
219.673,-37.1000022888184
219.683,-32.1599998474121
219.693,-12.0000009536743
219.703,27.4000015258789
219.713,70.2800064086914
219.723,106.92000579834
219.733,114.940002441406
219.743,112.280006408691
219.753,117.070007324219
219.763,121.940002441406
219.773,87.4300079345703
219.782,24.5000019073486
219.792,-11.1300001144409
219.802,-26.2500019073486
219.812,-35.3800010681152
219.822,-66.3899993896484
219.832,-84.2800064086914
219.842,-85.4700012207031
219.852,-63.0000038146973
219.862,-51.5500030517578
219.872,-55.3300018310547
219.882,-39.7900009155273
219.892,-14.5900011062622
219.902,7.1700005531311
219.912,23.8000011444092
219.922,32.0200004577637
219.932,40.3900032043457
219.942,52.6000022888184
219.952,55.2600021362305
219.962,47.6300010681152
219.972,32.2300033569336
219.98,18.7900009155273
219.99,10.3900003433228
220,-2.97000002861023
220.01,-14.4900007247925
220.02,-21.7000007629395
220.03,-34.120002746582
220.04,-46.3400039672852
220.05,-64.6399993896484
220.06,-81.0900039672852
220.07,-77.4500045776367
220.08,-82.4900054931641
220.09,-88.8600006103516
220.1,-94.4300079345703
220.11,-70.7700042724609
220.12,-50.5700035095215
220.13,-39.9000015258789
220.14,-27.7200012207031
220.15,-9.6200008392334
220.16,11.0900001525879
220.17,9.24000072479248
220.179,-3.29000020027161
220.189,-10.0400009155273
220.199,-14.7700004577637
220.209,-13.3700008392334
220.219,-17.6400012969971
220.229,-16.480001449585
220.239,4.55000019073486
220.249,21.5900001525879
220.259,21.7700004577637
220.269,12.9100008010864
220.279,11.2300004959106
220.289,-10.0400009155273
220.299,-38.7100028991699
220.309,-52.9900016784668
220.319,-57.0100021362305
220.329,-46.8300018310547
220.339,-34.7200012207031
220.349,-25.7200012207031
220.359,-2.94000005722046
220.369,17.810001373291
220.373,-18.9700012207031
220.383,-43.9900016784668
220.393,-49.9800033569336
220.403,-49.560001373291
220.413,-69.6500015258789
220.423,-84.6600036621094
220.433,-86.8000030517578
220.443,-71.0100021362305
220.453,-53.4400024414062
220.463,-23.4500007629395
220.473,-1.05000007152557
220.483,4.69000005722046
220.493,-6.33000040054321
220.503,-30.4100017547607
220.513,-48.8600006103516
220.523,-56.1700019836426
220.532,-70.5900039672852
220.542,-90.7200012207031
220.552,-82.4900054931641
220.562,-63.3500022888184
220.572,-40.2800025939941
220.582,-10.2500009536743
220.592,6.96000051498413
220.602,9.48000049591064
220.612,6.02000045776367
220.622,-11.0200004577637
220.632,-9.94000053405762
220.642,-11.9300003051758
220.652,-14.3500003814697
220.662,-14.7000007629395
220.672,-7.77000045776367
220.682,6.19000005722046
220.692,15.6800003051758
220.702,30.3400020599365
220.712,41.370002746582
220.722,63.3800048828125
220.73,76.5800018310547
220.74,74.4100036621094
220.75,57.5700035095215
220.76,36.4000015258789
220.77,17.1500015258789
220.78,0.770000040531158
220.79,-6.58000040054321
220.8,-13.8900003433228
220.81,-16.5900001525879
220.82,-23.9000015258789
220.83,-37.5500030517578
220.84,-38.2200012207031
220.85,-43.3300018310547
220.86,-43.2600021362305
220.87,-50.6100006103516
220.88,-69.5100021362305
220.89,-71.2900009155273
220.9,-79.2700042724609
220.91,-98.4900054931641
220.92,-130.900009155273
220.929,-154.560012817383
220.939,-169.400009155273
220.949,-177.310012817383
220.959,-160.580001831055
220.969,-156.030014038086
220.979,-133.490005493164
220.989,-108.950004577637
220.999,-88.7600021362305
221.009,-75.9800033569336
221.019,-81.7600021362305
221.029,-76.6100006103516
221.039,-73.8500061035156
221.049,-70.140007019043
221.059,-57.9200019836426
221.069,-41.9300003051758
221.079,-15.4700002670288
221.089,3.1100001335144
221.099,9.24000072479248
221.109,-1.47000002861023
221.119,-18.6900005340576
221.123,-111.93000793457
221.133,-145.139999389648
221.143,-166.110000610352
221.153,-172.300003051758
221.163,-187.600006103516
221.173,-180.280014038086
221.183,-156.940002441406
221.193,-130.34001159668
221.203,-71.5699996948242
221.213,12.2100009918213
221.223,96.7400054931641
221.233,169.780014038086
221.243,216.820007324219
221.253,240.520004272461
221.263,240.660018920898
221.273,222.630004882812
221.282,196.310012817383
221.292,163.690002441406
221.302,127.43000793457
221.312,87.7800064086914
221.322,49.4500007629395
221.332,11.6900005340576
221.342,-6.05000019073486
221.352,-7.87000036239624
221.362,-10.4300003051758
221.372,-2.97000002861023
221.382,19.0700016021729
221.392,50.4700012207031
221.402,89.6000061035156
221.412,115.880004882812
221.422,132.610000610352
221.432,152.950012207031
221.442,179.93000793457
221.452,196.240005493164
221.462,191.520004272461
221.472,157.360000610352
221.48,95.0200042724609
221.49,13.3700008392334
221.5,-50.2900009155273
221.51,-122.390007019043
221.52,-186.060012817383
221.53,-234.710006713867
221.54,-249.830017089844
221.55,-224.000015258789
221.56,-160.860000610352
221.57,-96.6700057983398
221.58,-56.8400039672852
221.59,-35.2100028991699
221.6,-53.3400039672852
221.61,-87.640007019043
221.62,-123.93000793457
221.63,-174.190002441406
221.64,-207.060012817383
221.65,-218.710006713867
221.66,-186.300003051758
221.67,-122.570007324219
221.679,-44.5900039672852
221.689,4.48000001907349
221.699,63.9800033569336
221.709,153.370010375977
221.719,215.420013427734
221.729,240.520004272461
221.739,219.170013427734
221.749,136.670013427734
221.759,57.5000038146973
221.769,0.560000002384186
221.779,-58.4500045776367
221.789,-124.18000793457
221.799,-192.010009765625
221.809,-234.990005493164
221.819,-244.68000793457
221.829,-219.480010986328
221.839,-211.750015258789
221.849,-200.550003051758
221.859,-165.860000610352
221.869,-103.810005187988
221.873,63.310001373291
221.883,75.1100006103516
221.893,69.0200042724609
221.903,49.6600036621094
221.913,33.560001373291
221.923,26.2100009918213
221.933,19.980001449585
221.943,13.4000005722046
221.953,14.9100008010864
221.963,11.7200002670288
221.973,5.49000024795532
221.983,-1.40000009536743
221.993,-26.3200016021729
222.003,-41.7900009155273
222.013,-56.6600036621094
222.023,-73.640007019043
222.032,-75.9100036621094
222.042,-79.8300018310547
222.052,-81.9000015258789
222.062,-66.4600067138672
222.072,-30.8000011444092
222.082,18.8600006103516
222.092,52.5700035095215
222.102,89.7000045776367
222.112,120.92000579834
222.122,153.610000610352
222.132,163.170013427734
222.142,146.470001220703
222.152,115.43000793457
222.162,66.5699996948242
222.172,17.3600006103516
222.182,-58.620002746582
222.192,-134.610000610352
222.202,-180.420013427734
222.212,-211.080017089844
222.222,-222.530014038086
222.23,-200.270004272461
222.24,-130.410003662109
222.25,-44.0300025939941
222.26,16.9400005340576
222.27,67.7200012207031
222.28,98.5200042724609
222.29,113.120002746582
222.3,124.040008544922
222.31,106.710006713867
222.32,82.9100036621094
222.33,64.5400009155273
222.34,57.4000015258789
222.35,67.8600006103516
222.36,80.0400009155273
222.37,80.7400054931641
222.38,88.5100021362305
222.39,103.630004882812
222.4,102.860008239746
222.41,86.9700012207031
222.42,50.7100028991699
222.429,6.51000022888184
222.439,-19.7400016784668
222.449,-40.6700019836426
222.459,-47.7000007629395
222.469,-53.2300033569336
222.479,-48.9600028991699
222.489,-15.2200002670288
222.499,38.1500015258789
222.509,87.1100006103516
222.519,128.270004272461
222.529,160.09001159668
222.539,167.610000610352
222.549,168.700012207031
222.559,152.910003662109
222.569,92.4300079345703
222.579,35.9099998474121
222.589,-24.3200016021729
222.599,-78.9900054931641
222.609,-107.520004272461
222.619,-129.360000610352
222.623,-130.650009155273
222.633,-128.660003662109
222.643,-129.670013427734
222.653,-96.2100067138672
222.663,-72.3100051879883
222.673,-77.7300033569336
222.683,-81.9000015258789
222.693,-84.2400054931641
222.703,-90.370002746582
222.713,-71.7800064086914
222.723,-44.2400016784668
222.733,-70.8000030517578
222.743,-18.6500015258789
222.753,47.8800010681152
222.763,52.8500022888184
222.773,38.5300025939941
222.781,17.8800010681152
222.791,-5.18000030517578
222.801,24.3600006103516
222.811,1.19000005722046
222.821,-67.5500030517578
222.831,-96.1100082397461
222.841,-94.7100067138672
222.851,-102.93000793457
222.861,-87.1500015258789
222.871,-64.5
222.881,-59.3900032043457
222.891,0.0300000011920929
222.901,57.8900032043457
222.911,44.9000015258789
222.921,9.55000019073486
222.931,20.3300018310547
222.941,14.5200004577637
222.951,-3.1100001335144
222.961,-26.3900012969971
222.971,-33.4600028991699
222.98,-56.6600036621094
222.99,-61.9100036621094
223,-62.7500038146973
223.01,-54.6700019836426
223.02,-33.1400032043457
223.03,-15.8900003433228
223.04,-26.4600009918213
223.05,-24.1500015258789
223.06,-3.04000020027161
223.07,22.6800003051758
223.08,16.060001373291
223.09,-0.520000040531158
223.1,3.78000020980835
223.11,-3.46000027656555
223.12,-0.450000017881393
223.13,-35.0300025939941
223.14,-64.4000015258789
223.15,-80.0100021362305
223.16,-63.0700035095215
223.17,-70.7700042724609
223.179,-56.6600036621094
223.189,-15.8200006484985
223.199,17.7800006866455
223.209,41.6500015258789
223.219,48.3300018310547
223.229,58.6600036621094
223.239,41.4400024414062
223.249,34.5400009155273
223.259,-0.0700000002980232
223.269,-19.980001449585
223.279,-15.1500005722046
223.289,-25.9700012207031
223.299,-38.1800003051758
223.309,-57.4000015258789
223.319,-71.2600021362305
223.329,-62.5100021362305
223.339,-52.2200012207031
223.349,-53.5100021362305
223.359,-45.7400016784668
223.369,-30.5500011444092
223.373,-11.0600004196167
223.383,-5.49000024795532
223.393,-7.84000015258789
223.403,-17.8800010681152
223.413,-11.9700002670288
223.423,11.5800008773804
223.433,20.3300018310547
223.443,9.90000057220459
223.453,-10.7800006866455
223.463,-17.2900009155273
223.473,-23.5200004577637
223.483,-10.6000003814697
223.493,-9.90000057220459
223.503,-23.9000015258789
223.513,-10.2500009536743
223.523,-33.7000007629395
223.531,-79.0300064086914
223.541,-93.1000061035156
223.551,-100.590003967285
223.561,-115.250007629395
223.571,-108.850006103516
223.581,-73.0100021362305
223.591,-40.4200019836426
223.601,-6.79000043869019
223.611,21.4500007629395
223.621,39.6900024414062
223.631,42.1000022888184
223.641,29.7800006866455
223.651,-15.3300008773804
223.661,-30.8000011444092
223.671,-50.7800025939941
223.681,-84.5900039672852
223.691,-99.0100021362305
223.701,-100.100006103516
223.711,-82.0700073242188
223.721,-59.0800018310547
223.73,-21.7000007629395
223.74,69.5400009155273
223.75,162.500015258789
223.76,205.450012207031
223.77,252.730010986328
223.78,262.710021972656
223.79,226.130004882812
223.8,168.070007324219
223.81,132.820007324219
223.82,80.4300003051758
223.83,39.3400001525879
223.84,17.4600009918213
223.85,-3.46000027656555
223.86,-6.93000030517578
223.87,9.66000080108643
223.88,43.6400032043457
223.89,87.4300079345703
223.9,121.830009460449
223.91,124.770004272461
223.92,132.160003662109
223.929,127.43000793457
223.939,104.540008544922
223.949,61.8400039672852
223.959,22.9200019836426
223.969,-8.40000057220459
223.979,-34.5400009155273
223.989,-50.9900016784668
223.999,-54.2800025939941
224.009,-41.7200012207031
224.019,-32.620002746582
224.029,-8.01000022888184
224.039,17.6700000762939
224.049,28.0000019073486
224.059,19.6000003814697
224.069,16.1700000762939
224.079,15.6800003051758
224.089,4.01999998092651
224.099,14.8000011444092
224.109,26.1800003051758
224.119,25.230001449585
224.124,-150.600006103516
224.134,-221.550003051758
224.144,-279.230010986328
224.154,-341.810028076172
224.164,-395.360015869141
224.174,-430.810028076172
224.184,-448.560028076172
224.194,-438.830017089844
224.204,-386.260009765625
224.214,-292.950012207031
224.224,-204.220016479492
224.234,-99.6800079345703
224.244,-6.79000043869019
224.254,60.4100036621094
224.264,111.26000213623
224.274,148.290008544922
224.281,173.950012207031
224.291,168.030014038086
224.301,147.770004272461
224.311,118.93000793457
224.321,94.0800018310547
224.331,64.0100021362305
224.341,48.4400024414062
224.351,39.3400001525879
224.361,23.2400016784668
224.371,5.91000032424927
224.381,20.3700008392334
224.391,32.6500015258789
224.401,39.4400024414062
224.411,80.8100051879883
224.421,130.860000610352
224.431,162.120010375977
224.441,194.530014038086
224.451,229.18000793457
224.461,239.68000793457
224.471,208.390014648438
224.48,169.260009765625
224.49,116.270004272461
224.5,22.2200012207031
224.51,-61.4900016784668
224.52,-109.690002441406
224.53,-144.620010375977
224.54,-165.410003662109
224.55,-153.68000793457
224.56,-125.68000793457
224.57,-99.8500061035156
224.58,-63.2400016784668
224.59,-2.87000012397766
224.6,41.4400024414062
224.61,55.6500015258789
224.62,76.2300033569336
224.63,86.3100051879883
224.64,69.0200042724609
224.65,23.2000007629395
224.66,-31.0800018310547
224.67,-76.9600067138672
224.679,-107.380004882812
224.689,-112.000007629395
224.699,-100.660003662109
224.709,-83.7200012207031
224.719,-68.7000045776367
224.729,-44.5200004577637
224.739,-7.94000053405762
224.749,-15.4700002670288
224.759,-12.9500007629395
224.769,13.3000001907349
224.779,-5.5600004196167
224.789,-7.70000028610229
224.799,-11.0600004196167
224.809,-42.4900016784668
224.819,-54.2500038146973
224.829,-64.6800003051758
224.839,-95.5500030517578
224.849,-129.850006103516
224.859,-164.920013427734
224.869,-177.310012817383
224.873,-121.970008850098
224.883,-1.05000007152557
224.893,100.620002746582
224.903,175.100006103516
224.913,232.190017700195
224.923,277.300018310547
224.933,294.420013427734
224.943,248.43000793457
224.953,162.330001831055
224.963,51.2000007629395
224.973,-60.2700042724609
224.983,-147.520004272461
224.993,-193.550003051758
225.003,-243.84001159668
225.013,-291.720001220703
225.023,-262.710021972656
225.031,-195.330001831055
225.041,-129.779998779297
225.051,-95.4800033569336
225.061,-73.9900054931641
225.071,-43.8900032043457
225.081,-15.1200008392334
225.091,30.1000022888184
225.101,75.7700042724609
225.111,103.600006103516
225.121,152.630004882812
225.131,238.560012817383
225.141,303.27001953125
225.151,355.350006103516
225.161,426.160034179688
225.171,436.340026855469
225.181,365.820007324219
225.191,288.470001220703
225.201,171.990005493164
225.211,17.9500007629395
225.221,-97.120002746582
225.23,-161.730010986328
225.24,-218.710006713867
225.25,-247.130004882812
225.26,-263.410003662109
225.27,-264.77001953125
225.28,-281.220001220703
225.29,-262.110015869141
225.3,-222.560012817383
225.31,-193.510009765625
225.32,-146.190002441406
225.33,-68.1800003051758
225.34,0.940000057220459
225.35,82.9800033569336
225.36,171.880004882812
225.37,237.580017089844
225.38,294.730010986328
225.39,307.75
225.4,256.370025634766
225.41,158.060012817383
225.42,49.3800010681152
225.429,-44.9400024414062
225.439,-120.890007019043
225.449,-173.000015258789
225.459,-200.160003662109
225.469,-208.530014038086
225.479,-210.100006103516
225.489,-197.290008544922
225.499,-183.570007324219
225.509,-164.530014038086
225.519,-128.029998779297
225.529,-73.0800018310547
225.539,-10.6700000762939
225.549,28.2100009918213
225.559,68.9800033569336
225.569,117.770004272461
225.579,129.880004882812
225.589,94.2200012207031
225.599,44.1000022888184
225.609,-26.6700019836426
225.619,-88.5100021362305
225.623,-27.7200012207031
225.633,-9.90000057220459
225.643,22.1200008392334
225.653,89.390007019043
225.663,124.250007629395
225.673,120.820007324219
225.683,116.440002441406
225.693,109.790008544922
225.703,75.8800048828125
225.713,39.2300033569336
225.723,21.8400001525879
225.733,-12.7400007247925
225.743,-37.1700019836426
225.753,-32.5100021362305
225.763,-46.0200004577637
225.773,-65.870002746582
225.781,-43.4300003051758
225.791,-40.3500022888184
225.801,-38.3600006103516
225.811,-11.5100002288818
225.821,4.09000015258789
225.831,1.22000002861023
225.841,4.8600001335144
225.851,20.9300003051758
225.861,1.78000009059906
225.871,-26.8400020599365
225.881,-16.0300006866455
225.891,12.0700006484985
225.901,2.45000004768372
225.911,-49.7300033569336
225.921,-53.7600021362305
225.931,-13.5800008773804
225.941,26.1400012969971
225.951,15.3300008773804
225.961,-11.9700002670288
225.971,-10.5700006484985
225.98,32.9300003051758
225.99,40.5300025939941
226,1.15000009536743
226.01,-2.03000020980835
226.02,27.8900012969971
226.03,32.9300003051758
226.04,3.29000020027161
226.05,-42.560001373291
226.06,-54.4200019836426
226.07,-59.8500022888184
226.08,-65.620002746582
226.09,-38.810001373291
226.1,1.26000010967255
226.11,32.4099998474121
226.12,68.25
226.13,97.3300018310547
226.14,99.2900009155273
226.15,96.9500045776367
226.16,99.2900009155273
226.17,97.9600067138672
226.179,81.6900024414062
226.189,74.3400039672852
226.199,87.8500061035156
226.209,104.050003051758
226.219,130.34001159668
226.229,150.5
226.239,178.780014038086
226.249,203.870010375977
226.259,206.43000793457
226.269,186.550003051758
226.279,162.220001220703
226.289,111.68000793457
226.299,56.0700035095215
226.309,8.36000061035156
226.319,-29.8900012969971
226.329,-37.9000015258789
226.339,-38.9500007629395
226.349,-27.8900012969971
226.359,-20.4400005340576
226.369,3.15000009536743
226.373,9.48000049591064
226.383,8.92000007629395
226.393,4.8600001335144
226.403,5.98000049591064
226.413,6.26000022888184
226.423,16.9400005340576
226.433,37.4100036621094
226.443,46.6500015258789
226.453,45.8500022888184
226.463,46.1300010681152
226.473,46.8300018310547
226.483,45.2200012207031
226.493,29.5000019073486
226.503,21.1000003814697
226.513,32.6500015258789
226.523,57.4000015258789
226.531,78.9200057983398
226.541,119.210006713867
226.551,154
226.561,177.690002441406
226.571,195.370010375977
226.581,193.230010986328
226.591,189.490005493164
226.601,182.350006103516
226.611,157.920013427734
226.621,129.360000610352
226.631,110.880004882812
226.641,100.830001831055
226.651,103.390007019043
226.661,104.020004272461
226.671,110.880004882812
226.681,99.8500061035156
226.691,87.7100067138672
226.701,85.9600067138672
226.711,66.9500045776367
226.721,57.5400009155273
226.73,36.7800025939941
226.74,18.6900005340576
226.75,1.71000003814697
226.76,3.08000016212463
226.77,3.15000009536743
226.78,-3.32000017166138
226.79,6.19000005722046
226.8,-6.33000040054321
226.81,-0.940000057220459
226.82,-1.78000009059906
226.83,6.93000030517578
226.84,3.74000024795532
226.85,2.76000022888184
226.86,17.1800003051758
226.87,29.4000015258789
226.88,59.180004119873
226.89,65.4500045776367
226.9,55.0200042724609
226.91,58.060001373291
226.92,59.6700019836426
226.929,65.4500045776367
226.939,44.2400016784668
226.949,25.8600006103516
226.959,20.5100002288818
226.969,26.1400012969971
226.979,45.810001373291
226.989,54.3200035095215
226.999,64.1900024414062
227.009,83.4400024414062
227.019,108.67000579834
227.029,117.700004577637
227.039,91.2100067138672
227.049,42.0000038146973
227.059,2.76000022888184
227.069,-20.1600017547607
227.079,-47.3200035095215
227.089,-83.2600021362305
227.099,-117.110008239746
227.109,-120.080009460449
227.119,-111.540008544922
227.122,37.870002746582
227.132,62.0500030517578
227.142,78.7100067138672
227.152,75.3500061035156
227.162,54.0000038146973
227.172,41.2300033569336
227.182,26.3200016021729
227.192,12.4600009918213
227.202,24.1100006103516
227.212,27.3300018310547
227.222,27.8900012969971
227.232,19.6700000762939
227.242,2.03000020980835
227.252,-12.6300010681152
227.262,-36.4700012207031
227.272,-63.0700035095215
227.281,-103.950004577637
227.291,-139.300003051758
227.301,-176.750015258789
227.311,-183.750015258789
227.321,-177.760009765625
227.331,-155.890014648438
227.341,-106.990005493164
227.351,-58.2400016784668
227.361,-1.26000010967255
227.371,52.5700035095215
227.381,109.370002746582
227.391,166.910003662109
227.401,200.34001159668
227.411,179.900009155273
227.421,124.770004272461
227.431,99.890007019043
227.441,59.6000022888184
227.451,13.6500005722046
227.461,10.3600006103516
227.471,34.5800018310547
227.48,57.2200012207031
227.49,89.5300064086914
227.5,99.3600082397461
227.51,61.3500022888184
227.52,38.7800025939941
227.53,45.4300003051758
227.54,59.3900032043457
227.55,99.7100067138672
227.56,127.080009460449
227.57,134.260009765625
227.58,151.020004272461
227.59,189.490005493164
227.6,210.350006103516
227.61,224.420013427734
227.62,226.270004272461
227.63,195.610015869141
227.64,173.980010986328
227.65,158.900009155273
227.66,147.940002441406
227.67,142.520004272461
227.674,142.270004272461
227.684,93.9700012207031
227.694,42.9400024414062
227.704,-0.940000057220459
227.714,-52.7100028991699
227.724,-84.9100036621094
227.734,-107.380004882812
227.744,-133.910003662109
227.754,-154.420013427734
227.764,-157.110000610352
227.774,-154.140014648438
227.784,-138.350006103516
227.794,-99.2600021362305
227.804,-76.8200073242188
227.814,-68.4900054931641
227.824,-50.5700035095215
227.832,-39.1300010681152
227.842,-28.1000003814697
227.852,-31.7400016784668
227.862,-70.9100036621094
227.872,-98.0300064086914
227.882,-110.530006408691
227.892,-105.140007019043
227.902,-90.7500076293945
227.912,-78.2600021362305
227.922,-61.0000038146973
227.932,-45.2200012207031
227.942,-20.1600017547607
227.952,22.2900009155273
227.962,50.6100006103516
227.972,51.620002746582
227.982,36.0100021362305
227.992,20.1600017547607
228.002,15.8500003814697
228.012,28.4900016784668
228.022,35.310001373291
228.031,31.6400012969971
228.041,33.1100006103516
228.051,20.0200004577637
228.061,-2.10000014305115
228.071,-19.1100006103516
228.081,-23.9000015258789
228.091,-34.75
228.101,-28.3800010681152
228.111,-16.5500011444092
228.121,-3.04000020027161
228.131,4.34000015258789
228.141,3.1800000667572
228.151,7.03000020980835
228.161,9.52000045776367
228.171,18.1600017547607
228.181,21.7000007629395
228.191,14.9100008010864
228.201,14.9400005340576
228.211,14.2400007247925
228.221,35.7300033569336
228.23,56.4500045776367
228.24,74.1600036621094
228.25,96.4200057983398
228.26,116.970008850098
228.27,138.530014038086
228.28,140.240005493164
228.29,145.770004272461
228.3,148.640014648438
228.31,141.150009155273
228.32,132.230010986328
228.33,106.120002746582
228.34,65.6600036621094
228.35,35.560001373291
228.36,4.93000030517578
228.37,-40.9800033569336
228.38,-73.2200012207031
228.39,-86.2400054931641
228.4,-61.4900016784668
228.41,-20.7900009155273
228.42,21.2800006866455
228.424,163.970001220703
228.434,175.280014038086
228.444,192.290008544922
228.454,219.660003662109
228.464,256.160003662109
228.474,290.670013427734
228.484,311.670013427734
228.494,303.970001220703
228.504,276.080017089844
228.514,226.450012207031
228.524,175.630004882812
228.534,116.790008544922
228.544,55.930004119873
228.554,6.72000026702881
228.564,-8.85000038146973
228.574,-8.71000003814697
228.582,-7.3100004196167
228.592,9.0600004196167
228.602,33.0699996948242
228.612,58.4100036621094
228.622,73.9900054931641
228.632,57.5400009155273
228.642,24.3600006103516
228.652,-10.460000038147
228.662,-39.7900009155273
228.672,-69.3300018310547
228.682,-107.480003356934
228.692,-133.350006103516
228.702,-146.370010375977
228.712,-137.300003051758
228.722,-115.710006713867
228.732,-103.110008239746
228.742,-82.6000061035156
228.752,-53.7200012207031
228.762,-20.7200012207031
228.772,2.03000020980835
228.781,3.04000020027161
228.791,-12.2500009536743
228.801,-19
228.811,-17.2200012207031
228.821,-17.4300003051758
228.831,-23.5200004577637
228.841,-31.1800022125244
228.851,-22.5000019073486
228.861,-7.80000019073486
228.871,4.58000040054321
228.881,9.73000049591064
228.891,7.28000020980835
228.901,11.2300004959106
228.911,24.8500003814697
228.921,32.9300003051758
228.931,25.230001449585
228.941,12.8100004196167
228.951,14.9400005340576
228.961,33.9500007629395
228.971,47.6300010681152
228.98,60.0200042724609
228.99,65.9700012207031
229,80.5000076293945
229.01,105.560005187988
229.02,112.070007324219
229.03,92.9200057983398
229.04,62.4400024414062
229.05,37.6900024414062
229.06,17.3900012969971
229.07,-18.2700004577637
229.08,-71.3600006103516
229.09,-100.830001831055
229.1,-96.1100082397461
229.11,-70.4200057983398
229.12,-50.6400032043457
229.13,-24.1500015258789
229.14,22.6400012969971
229.15,73.5300064086914
229.16,116.51000213623
229.17,139.889999389648
229.175,84.0000076293945
229.185,36.75
229.195,8.78000068664551
229.205,-4.65000009536743
229.215,-45.7100028991699
229.225,-75.3500061035156
229.235,-91.5200042724609
229.245,-72.3100051879883
229.255,-54.0000038146973
229.265,-48.930004119873
229.275,-24.6700019836426
229.285,-3.85000014305115
229.295,9.17000007629395
229.305,18.9300003051758
229.315,34.370002746582
229.325,54.9800033569336
229.332,58.7300033569336
229.342,58.9700012207031
229.352,61.6700019836426
229.362,70.7700042724609
229.372,79.6600036621094
229.382,66.8100051879883
229.392,30.9700012207031
229.402,13.6100006103516
229.412,16.310001373291
229.422,8.43000030517578
229.432,-4.23000001907349
229.442,-7.10000038146973
229.452,-3.15000009536743
229.462,-2.27000021934509
229.472,-8.64000034332275
229.482,-4.48000001907349
229.492,20.0900001525879
229.502,39.6900024414062
229.512,43.2900009155273
229.522,56.9400024414062
229.531,77.140007019043
229.541,86.2700042724609
229.551,77.140007019043
229.561,52.0800018310547
229.571,34.3300018310547
229.581,26.8800010681152
229.591,7.84000015258789
229.601,-3.57000017166138
229.611,-0.350000023841858
229.621,-5
229.631,-1.15000009536743
229.641,-9.3100004196167
229.651,-6.44000053405762
229.661,10.6700000762939
229.671,-2.13000011444092
229.681,-12.4200010299683
229.691,-9.76000022888184
229.701,-18.7200012207031
229.711,-25.060001373291
229.721,-22.8200016021729
229.73,-4.55000019073486
229.74,22.5700016021729
229.75,31.2200012207031
229.76,38.7400016784668
229.77,45.7400016784668
229.78,59.0400009155273
229.79,37.6600036621094
229.8,20.6100006103516
229.81,17.810001373291
229.82,12.9800004959106
229.83,3.67000007629395
229.84,0.350000023841858
229.85,8.78000068664551
229.86,28.2100009918213
229.87,38.0800018310547
229.88,40.3200035095215
229.89,42.9800033569336
229.9,40.2500038146973
229.91,22.8500003814697
229.92,12.1100006103516
229.924,-4.16000032424927
229.934,8.28999996185303
229.944,5
229.954,4.09000015258789
229.964,2.87000012397766
229.974,-6.44000053405762
229.984,-13.4000005722046
229.994,-18.7600002288818
230.004,-28.0300006866455
230.014,-57.5000038146973
230.024,-72.3800048828125
230.034,-69.5800018310547
230.044,-48.7200012207031
230.054,-35
230.064,-20.4000015258789
230.074,-9.34000015258789
230.082,6.89000034332275
230.092,8.75
230.102,13.1600008010864
230.112,33.0400009155273
230.122,35.1700019836426
230.132,11.0200004577637
230.142,0.520000040531158
230.152,4.30000019073486
230.162,-8.40000057220459
230.172,-13.8900003433228
230.182,-2.31000018119812
230.192,1.57000005245209
230.202,-3.15000009536743
230.212,-2.31000018119812
230.222,-4.41000032424927
230.232,-6.02000045776367
230.242,-0.0700000002980232
230.252,12.1800003051758
230.262,20.1900005340576
230.272,13.1900005340576
230.281,11.6500005722046
230.291,23.1000003814697
230.301,23.3400020599365
230.311,9.69000053405762
230.321,4.93000030517578
230.331,-2.03000020980835
230.341,-17.0799999237061
230.351,-26.4900016784668
230.361,-23.480001449585
230.371,-27.1600017547607
230.381,-37.2400016784668
230.391,-34.2600021362305
230.401,-31.7100009918213
230.411,-39.9700012207031
230.421,-34.5100021362305
230.431,-26.7400016784668
230.441,-21.0000019073486
230.451,-30.6600017547607
230.461,-26.7700004577637
230.471,-14.9800004959106
230.48,-15.8500003814697
230.49,-17.2900009155273
230.5,-5.70000028610229
230.51,2.48000001907349
230.52,-4.97000026702881
230.53,4.23000001907349
230.54,16.1300010681152
230.55,7.87000036239624
230.56,8.40000057220459
230.57,12.5600004196167
230.58,6.47000026702881
230.59,-3.57000017166138
230.6,4.30000019073486
230.61,14.1000003814697
230.62,5.74000024795532
230.63,9.27000045776367
230.64,19.1100006103516
230.65,8.15000057220459
230.66,10.1800003051758
230.67,22.9900016784668
230.674,-71.3600006103516
230.684,-91.2400054931641
230.694,-96.7700042724609
230.704,-94.9900054931641
230.714,-87.2900009155273
230.724,-72.7300033569336
230.734,-23.1000003814697
230.744,15.6800003051758
230.754,64.120002746582
230.764,99.5400009155273
230.774,94.5300064086914
230.784,96.390007019043
230.794,103.18000793457
230.804,57.2600021362305
230.814,16.310001373291
230.824,-2.94000005722046
230.832,-34.75
230.842,-51.4100036621094
230.852,-39.4800033569336
230.862,-68.4200057983398
230.872,-105.240005493164
230.882,-91.5200042724609
230.892,-100.870002746582
230.902,-109.020004272461
230.912,-93.4100036621094
230.922,-49.7000007629395
230.932,-37.620002746582
230.942,-2.17000007629395
230.952,59.3900032043457
230.962,66.5699996948242
230.972,75.2800064086914
230.982,109.160003662109
230.992,104.090003967285
231.002,75.8400039672852
231.012,63.1000022888184
231.022,21.1000003814697
231.031,10.1100006103516
231.041,-7.80000019073486
231.051,-37.060001373291
231.061,-89.7000045776367
231.071,-115.080001831055
231.081,-105.980003356934
231.091,-112.730003356934
231.101,-116.160003662109
231.111,-105.980003356934
231.121,-80.4600067138672
231.131,-29.3600006103516
231.141,33.9800033569336
231.151,77.2100067138672
231.161,92.1900024414062
231.171,136.570007324219
231.181,158.510009765625
231.191,127.990005493164
231.201,127.92000579834
231.211,92.5000076293945
231.221,30.5200023651123
231.23,21.7000007629395
231.24,-4.8600001335144
231.25,-49.870002746582
231.26,-59.4600028991699
231.27,-62.4400024414062
231.28,-67.3400039672852
231.29,-37.9700012207031
231.3,6.68000030517578
231.31,31.7400016784668
231.32,69.1900024414062
231.33,115.18000793457
231.34,122.780006408691
231.35,133.700012207031
231.36,156.34001159668
231.37,136.290008544922
231.38,113.610008239746
