Time,GyroX
82.251,13.8600006103516
82.271,18.4400005340576
82.281,25.3400020599365
82.291,32.4800033569336
82.301,14.7300004959106
82.311,-23.2000007629395
82.321,-30.4500007629395
82.331,-1.12000000476837
82.341,4.97000026702881
82.351,10.6400003433228
82.361,2.69000005722046
82.371,-15.0500011444092
82.381,2.13000011444092
82.391,19.1800003051758
82.401,23.1300010681152
82.411,30.060001373291
82.421,2.73000001907349
82.431,-7.52000045776367
82.441,12.2800006866455
82.451,10.0400009155273
82.461,15.5000009536743
82.469,3.15000009536743
82.479,-3.53000020980835
82.489,11.6500005722046
82.499,19.980001449585
82.509,0.730000019073486
82.519,-8.85000038146973
82.529,5.28000020980835
82.539,16.3800010681152
82.549,20.1600017547607
82.559,-2.34000015258789
82.569,2.24000000953674
82.579,19.4600009918213
82.589,21.8700008392334
82.599,23.480001449585
82.609,14.7300004959106
82.619,5.91000032424927
82.629,5.32000017166138
82.639,12.5300006866455
82.649,39.7900009155273
82.659,42.2100028991699
82.663,19.0700016021729
82.673,-27.7200012207031
82.683,-32.0900001525879
82.693,16.480001449585
82.703,11.6500005722046
82.713,14.7700004577637
82.723,-6.79000043869019
82.733,-13.7200002670288
82.743,19.4900016784668
82.753,30.3400020599365
82.763,6.09000015258789
82.773,-8.85000038146973
82.783,-7.87000036239624
82.793,-12.0700006484985
82.803,10.0800008773804
82.813,23.2000007629395
82.822,26.4600009918213
82.832,12.8800010681152
82.842,-3.85000014305115
82.852,15.6100006103516
82.862,35.6300010681152
82.872,22.3300018310547
82.882,5.88000011444092
82.892,-11.0200004577637
82.902,12.6000003814697
82.912,17.9200000762939
82.922,-3.01000022888184
82.932,1.40000009536743
82.942,1.64000010490417
82.952,-4.09000015258789
82.962,8.40000057220459
82.972,12.6000003814697
82.982,13.8600006103516
82.992,13.5800008773804
83.002,9.55000019073486
83.012,28.3500022888184
83.021,28.1700019836426
83.031,9.52000045776367
83.041,32.3000030517578
83.051,26.810001373291
83.061,7.14000034332275
83.071,32.6500015258789
83.081,35.7300033569336
83.091,18.0900001525879
83.101,13.7500009536743
83.111,8.19000053405762
83.121,17.2900009155273
83.131,26.560001373291
83.141,6.54000043869019
83.151,-6.19000005722046
83.161,-28.730001449585
83.171,-29.7500019073486
83.181,5.28000020980835
83.191,22.6800003051758
83.201,9.76000022888184
83.211,26.6300010681152
83.219,42.2400016784668
83.229,61.2500038146973
83.239,40.6300010681152
83.249,-5.35000038146973
83.259,7.66000032424927
83.269,3.32000017166138
83.279,8.32999992370605
83.289,5.39000034332275
83.299,7.5600004196167
83.309,21.0000019073486
83.319,27.3700008392334
83.329,41.6800003051758
83.339,63.5900039672852
83.349,57.1900024414062
83.359,51.0300025939941
83.369,60.9000015258789
83.379,36.7100028991699
83.389,21.1000003814697
83.399,19.4900016784668
83.409,-15.7500009536743
83.413,18.0900001525879
83.423,28.5900020599365
83.433,49.0300025939941
83.443,79.7300033569336
83.453,119.140007019043
83.463,137.440002441406
83.473,117.490005493164
83.483,113.92000579834
83.493,101.220001220703
83.503,96.6000061035156
83.513,70.7300033569336
83.523,46.9000015258789
83.533,25.8600006103516
83.543,8.82000064849854
83.553,6.93000030517578
83.563,32.8300018310547
83.572,-20.8600006103516
83.582,-57.8900032043457
83.592,-96.5600051879883
83.602,-152.490005493164
83.612,-164.530014038086
83.622,-202.540008544922
83.632,-177.34001159668
83.642,-139.75
83.652,-71.6100006103516
83.662,-11.6500005722046
83.672,39.5800018310547
83.682,90.0500030517578
83.692,136.010009765625
83.702,162.750015258789
83.712,189.070007324219
83.722,196.140014648438
83.732,179.860015869141
83.742,158.550003051758
83.752,134.43000793457
83.762,93.8300018310547
83.771,14.5900011062622
83.781,-1.78000009059906
83.791,-52.9200019836426
83.801,-63.8400039672852
83.811,-57.3300018310547
83.821,-84.3800048828125
83.831,-69.4400024414062
83.841,-53.5500030517578
83.851,-38.25
83.861,-46.7200012207031
83.871,-59.0400009155273
83.881,-115.850006103516
83.891,-127.960006713867
83.901,-163.270004272461
83.911,-184.170013427734
83.921,-173.420013427734
83.931,-146.93000793457
83.941,-112.42000579834
83.951,-45.8500022888184
83.961,24.6000003814697
83.969,86.3800048828125
83.979,133.279998779297
83.989,166.950012207031
83.999,178.850006103516
84.009,167.580001831055
84.019,154.870010375977
84.029,127.710006713867
84.039,62.9600028991699
84.049,12.1400003433228
84.059,-38.2900009155273
84.069,-96.4900054931641
84.079,-103.110008239746
84.089,-126.770004272461
84.099,-157.43000793457
84.109,-137.410003662109
84.119,-100.940002441406
84.129,-63.1700019836426
84.139,-13.3700008392334
84.149,28.0000019073486
84.159,61.1400032043457
84.163,100.340003967285
84.173,99.1500015258789
84.183,89.390007019043
84.193,81.7200012207031
84.203,87.0800018310547
84.213,77.1000061035156
84.223,86.4800033569336
84.233,97.3000030517578
84.243,87.5000076293945
84.253,77.1000061035156
84.263,62.1600036621094
84.273,32.4800033569336
84.283,32.0900001525879
84.293,33.3199996948242
84.303,30.310001373291
84.313,56.2400016784668
84.322,68.6300048828125
84.332,60.3000030517578
84.342,73.6000061035156
84.352,60.5500030517578
84.362,36.6100006103516
84.372,22.6400012969971
84.382,-16.480001449585
84.392,-53.5800018310547
84.402,-77.1000061035156
84.412,-113.750007629395
84.422,-152.490005493164
84.432,-167.960006713867
84.442,-184.480010986328
84.452,-160.020004272461
84.462,-104.090003967285
84.472,-37.3400001525879
84.482,29.2600021362305
84.492,80.5000076293945
84.502,105.520004272461
84.512,155.150009155273
84.52,206.880004882812
84.53,217.070007324219
84.54,179.760009765625
84.55,116.620002746582
84.56,68.5300064086914
84.57,54.7000007629395
84.58,37.060001373291
84.59,-13.2300004959106
84.6,-70.0300064086914
84.61,-106.290008544922
84.62,-122.150009155273
84.63,-123.790008544922
84.64,-123.340003967285
84.65,-121.690002441406
84.66,-103.880004882812
84.67,-48.8600006103516
84.68,8.61000061035156
84.69,53.3000030517578
84.7,73.9900054931641
84.71,97.4000015258789
84.719,127.990005493164
84.729,165.650009155273
84.739,203.030014038086
84.749,223.120010375977
84.759,213.390014648438
84.769,194.700012207031
84.779,139.470001220703
84.789,81.6500015258789
84.799,33.4600028991699
84.809,-13.6500005722046
84.819,-42.4500007629395
84.829,-45.7800025939941
84.839,-69.1600036621094
84.849,-104.51000213623
84.859,-137.230010986328
84.869,-152.490005493164
84.879,-147.520004272461
84.889,-133.59001159668
84.899,-139.230010986328
84.909,-112.030006408691
84.913,152.320007324219
84.923,175.380004882812
84.933,197.190002441406
84.943,194.810012817383
84.953,156.59001159668
84.963,106.01000213623
84.973,86.1700057983398
84.983,57.6100044250488
84.993,28.730001449585
85.003,17.0100002288818
85.013,17.0799999237061
85.023,15.4300003051758
85.033,-13.3700008392334
85.043,5.53000020980835
85.053,73.0400009155273
85.063,158.200012207031
85.072,172.510009765625
85.082,147.630004882812
85.092,106.330001831055
85.102,97.120002746582
85.112,173.880004882812
85.122,218.150009155273
85.132,212.620010375977
85.142,184.870010375977
85.152,88.4400024414062
85.162,-38.5300025939941
85.172,-137.160003662109
85.182,-242.720016479492
85.192,-293.790008544922
85.202,-288.960021972656
85.212,-241.43000793457
85.222,-249.020004272461
85.232,-241.390014648438
85.242,-247.690017700195
85.252,-245.030014038086
85.262,-134.150009155273
85.27,40.7400016784668
85.28,164.010009765625
85.29,182.870010375977
85.3,131.670013427734
85.31,134.610000610352
85.32,147
85.33,128.310012817383
85.34,102.830001831055
85.35,179.760009765625
85.36,219.450012207031
85.37,272.860015869141
85.38,327.390014648438
85.39,319.440002441406
85.4,290.810028076172
85.41,246.500015258789
85.42,230.160003662109
85.43,187.84001159668
85.44,123.830009460449
85.45,94.8500061035156
85.46,70.7300033569336
85.469,42.2100028991699
85.479,58.3800010681152
85.489,51.310001373291
85.499,11.4100008010864
85.509,11.7600002288818
85.519,-5.04000043869019
85.529,-69.2600021362305
85.539,-97.5400009155273
85.549,-127.710006713867
85.559,-176.010009765625
85.569,-168.030014038086
85.579,-186.900009155273
85.589,-209.190002441406
85.599,-181.230010986328
85.609,-141.610000610352
85.619,-79.9700012207031
85.629,-10.9900007247925
85.639,27.0500011444092
85.649,55.9600028991699
85.659,87.9900054931641
85.663,-47.6000022888184
85.673,-77.4500045776367
85.683,-105.350006103516
85.693,-109.160003662109
85.703,-89.2800064086914
85.713,-63.6600036621094
85.723,-34.370002746582
85.733,-12.7400007247925
85.743,21.2800006866455
85.753,54.0700035095215
85.763,75.8800048828125
85.773,95.9000015258789
85.783,106.190002441406
85.793,108.640007019043
85.803,110.600006103516
85.813,126.800003051758
85.822,131.210006713867
85.832,128.060012817383
85.842,140.070007324219
85.852,127.290008544922
85.862,80.0100021362305
85.872,56.9400024414062
85.882,11.7200002670288
85.892,-33.7400016784668
85.902,-51.060001373291
85.912,-82.6000061035156
85.922,-68
85.932,-40
85.942,-66.2200012207031
85.952,-44.7300033569336
85.962,-39.620002746582
85.972,-60.4400024414062
85.982,-86.5200042724609
85.992,-103.110008239746
86.002,-155.080001831055
86.012,-181.370010375977
86.02,-160.890014648438
86.03,-125.120002746582
86.04,-56.7300033569336
86.05,7.84000015258789
86.06,65.0600051879883
86.07,110.950004577637
86.08,143.850006103516
86.09,170.730010986328
86.1,174.890014648438
86.11,156.270004272461
86.12,107.730003356934
86.13,90.0500030517578
86.14,95.6900024414062
86.15,86.3800048828125
86.16,86.5200042724609
86.17,59.1500015258789
86.18,15.7500009536743
86.19,35.0300025939941
86.2,22.8500003814697
86.21,-10.8800001144409
86.219,-16.4099998474121
86.229,-16.9400005340576
86.239,17.7800006866455
86.249,49.7300033569336
86.259,24.8500003814697
86.269,4.62000036239624
86.279,1.6100001335144
86.289,-11.4100008010864
86.299,-25.3700008392334
86.309,-40.8800010681152
86.319,-61.2100028991699
86.329,-44.1300010681152
86.339,-28.0700016021729
86.349,-15.9200010299683
86.359,29.5000019073486
86.369,44.4800033569336
86.379,56.0000038146973
86.389,92.1900024414062
86.399,108.92000579834
86.409,107.17000579834
86.413,16.1300010681152
86.423,-15.0500011444092
86.433,-17.25
86.443,-32.6900024414062
86.453,-42.3500022888184
86.463,-37.2000007629395
86.473,-58.8000030517578
86.483,-48.4000015258789
86.493,-6.51000022888184
86.503,-12.1800003051758
86.513,-16.5500011444092
86.523,5.74000024795532
86.533,15.6800003051758
86.543,36.3300018310547
86.553,44.3800010681152
86.563,33
86.572,39.060001373291
86.582,47.7400016784668
86.592,43.9200019836426
86.602,46.0200004577637
86.612,33.1400032043457
86.622,27.2600021362305
86.632,15.6800003051758
86.642,-22.1200008392334
86.652,-17.6700000762939
86.662,9.41000080108643
86.672,-7.59000015258789
86.682,-20.7900009155273
86.692,-36.8200035095215
86.702,-47.9100036621094
86.712,-26.560001373291
86.722,-19.9500007629395
86.732,-22.7500019073486
86.742,-10.710000038147
86.752,-3.67000007629395
86.762,12.7400007247925
86.77,39.2000007629395
86.78,48.7900009155273
86.79,46.3400039672852
86.8,38.1500015258789
86.81,7.5600004196167
86.82,-8.28999996185303
86.83,-8.57000064849854
86.84,3.46000027656555
86.85,22.3600006103516
86.86,23.6900005340576
86.87,8.61000061035156
86.88,20.0900001525879
86.89,32.5500030517578
86.9,22.0500011444092
86.91,24.0800018310547
86.92,5.18000030517578
86.93,-22.1500015258789
86.94,-28.9100017547607
86.95,-28.9400005340576
86.96,-19.9100017547607
86.969,-23.310001373291
86.979,-31.810001373291
86.989,-4.55000019073486
86.999,23.2400016784668
87.009,14.8400011062622
87.019,4.48000001907349
87.029,4.72000026702881
87.039,6.6100001335144
87.049,3.50000023841858
87.059,0.840000033378601
87.069,5.18000030517578
87.079,5.1100001335144
87.089,-6.89000034332275
87.099,21.6300010681152
87.109,29.0500011444092
87.119,-10.710000038147
87.129,-10.3900003433228
87.139,9.27000045776367
87.149,6.8600001335144
87.159,-3.71000027656555
87.163,32.0900001525879
87.173,40.7400016784668
87.183,28.4200019836426
87.193,29.3600006103516
87.203,20.6800003051758
87.213,14.4200010299683
87.223,4.79000043869019
87.233,-12.6700010299683
87.243,-3.3600001335144
87.253,4.69000005722046
87.263,-9.6200008392334
87.273,-24.8800010681152
87.283,-31.2900009155273
87.293,-13.5800008773804
87.303,3.95000028610229
87.313,-5.18000030517578
87.322,-18.7200012207031
87.332,-9.76000022888184
87.342,6.54000043869019
87.352,20.7900009155273
87.362,7.94000053405762
87.372,-2.34000015258789
87.382,13.3700008392334
87.392,14.1000003814697
87.402,10.3900003433228
87.412,20.3700008392334
87.422,13.1200008392334
87.432,1.00999999046326
87.442,14.3500003814697
87.452,27.0200004577637
87.462,18.7900009155273
87.472,-0.660000026226044
87.482,-23.8300018310547
87.492,-8.26000022888184
87.502,31.810001373291
87.512,12.4200010299683
87.52,-51.2400016784668
87.53,-35.2400016784668
87.54,14.9400005340576
87.55,43.9200019836426
87.56,45.8500022888184
87.57,-12.6300010681152
87.58,20.2600002288818
87.59,38.8500022888184
87.6,27.1900005340576
87.61,35.2100028991699
87.62,10.6000003814697
87.63,0.520000040531158
87.64,-2.48000001907349
87.65,-26.1100006103516
87.66,-30.4500007629395
87.67,-8.36000061035156
87.68,-4.44000005722046
87.69,0.660000026226044
87.7,28.9400005340576
87.71,17.7400016784668
87.719,-11.7900009155273
87.729,-0.21000000834465
87.739,2.73000001907349
87.749,21.6600017547607
87.759,17.5300006866455
87.769,5.77000045776367
87.779,18.9000015258789
87.789,23.6900005340576
87.799,-2.66000008583069
87.809,12.3900003433228
87.819,37.4100036621094
87.829,31.1800022125244
87.839,5.07000017166138
87.849,27.8600006103516
87.859,46.9700012207031
87.869,4.83000040054321
87.879,-4.62000036239624
87.889,11.5500001907349
87.899,14.1700010299683
87.909,5.77000045776367
87.913,11.9700002670288
87.923,11.5800008773804
87.933,37.870002746582
87.943,32.1300010681152
87.953,27.4000015258789
87.963,28.1700019836426
87.973,0.590000033378601
87.983,-4.44000005722046
87.993,25.480001449585
88.003,35.7000007629395
88.013,45.6400032043457
88.023,72.0600051879883
88.033,68.6300048828125
88.043,78.0100021362305
88.053,82.140007019043
88.063,71.75
88.072,42.5200004577637
88.082,27.8200016021729
88.092,6.26000022888184
88.102,-14.9800004959106
88.112,-4.62000036239624
88.122,-0.280000001192093
88.132,-1.4300000667572
88.142,9.66000080108643
88.152,15.4000005722046
88.162,15.8200006484985
88.172,27.2600021362305
88.182,17.9500007629395
88.192,0
88.202,-9.83000087738037
88.212,-22.2200012207031
88.222,-35.4500007629395
88.232,-40.3900032043457
88.242,-60.9700012207031
88.252,-61.2500038146973
88.262,-47.1100006103516
88.27,-51.5500030517578
88.28,-36.9900016784668
88.29,-29.3300018310547
88.3,-12.7700004577637
88.31,-1.22000002861023
88.32,-7.73000049591064
88.33,7.3100004196167
88.34,-7.4200005531311
88.35,-28.2400016784668
88.36,-28.9100017547607
88.37,-21.5200004577637
88.38,-24.9200019836426
88.39,-31.6700019836426
88.4,-27.4000015258789
88.41,-41.9300003051758
88.42,-32.5800018310547
88.43,-16.0300006866455
88.44,-19.7700004577637
88.45,-22.6800003051758
88.46,1.85000014305115
88.469,17.8800010681152
88.479,32.7200012207031
88.489,77.870002746582
88.499,99.3600082397461
88.509,108.360008239746
88.519,132.510009765625
88.529,141.889999389648
88.539,124.600006103516
88.549,113.500007629395
88.559,103.560005187988
88.569,68.2100067138672
88.579,18.9000015258789
88.589,-17.0799999237061
88.599,-47.810001373291
88.609,-68
88.619,-59.0400009155273
88.629,-62.370002746582
88.639,-36.75
88.649,15.5700006484985
88.659,53.8300018310547
88.663,117.18000793457
88.673,118.020004272461
88.683,102.410003662109
88.693,97.0200042724609
88.703,94.0100021362305
88.713,76.9600067138672
88.723,69.2300033569336
88.733,54.8800010681152
88.743,28.7000007629395
88.753,12.0400009155273
88.763,-14.0000009536743
88.773,-23.4100017547607
88.783,-18.2700004577637
88.793,-14.4500007629395
88.803,-6.82000017166138
88.813,8.28999996185303
88.821,22.5700016021729
88.831,34.6800003051758
88.841,51.6900024414062
88.851,55.5800018310547
88.861,48.1900024414062
88.871,42.560001373291
88.881,17.4600009918213
88.891,-9.17000007629395
88.901,-27.5800018310547
88.911,-42.310001373291
88.921,-59.0400009155273
88.931,-60.7200012207031
88.941,-59.2900009155273
88.951,-49.6300010681152
88.961,-22.7100009918213
88.971,-15.0500011444092
88.981,-3.15000009536743
88.991,24.6400012969971
89.001,33.9800033569336
89.011,40.2500038146973
89.02,54.7000007629395
89.03,62.0500030517578
89.04,51.5500030517578
89.05,57.680004119873
89.06,51.9400024414062
89.07,16.310001373291
89.08,1.92000007629395
89.09,4.55000019073486
89.1,1.40000009536743
89.11,-12.4900007247925
89.12,-3.85000014305115
89.13,2.45000004768372
89.14,-4.01999998092651
89.15,0
89.16,3.22000026702881
89.17,3.95000028610229
89.18,8.36000061035156
89.19,33.7700004577637
89.2,50.0800018310547
89.21,50.4000015258789
89.219,66.7100067138672
89.229,71.75
89.239,62.0200042724609
89.249,56.7700042724609
89.259,42.870002746582
89.269,27.5400009155273
89.279,4.20000028610229
89.289,-8.26000022888184
89.299,-13.8200006484985
89.309,-27.6800022125244
89.319,-20.230001449585
89.329,-5.63000011444092
89.339,-2.10000014305115
89.349,12.0700006484985
89.359,25.9300003051758
89.369,36.4000015258789
89.379,46.7600021362305
89.389,60.3400039672852
89.399,67.6900024414062
89.409,69.3300018310547
89.413,70.2800064086914
89.423,65.2700042724609
89.433,70.3500061035156
89.443,81.6500015258789
89.453,62.4000015258789
89.463,54.8800010681152
89.473,33.3500022888184
89.483,1.71000003814697
89.493,-26.5300006866455
89.503,-69.0500030517578
89.513,-109.550003051758
89.523,-122.530006408691
89.533,-105.140007019043
89.543,-99.1500015258789
89.553,-52.8800010681152
89.563,-2.90000009536743
89.571,31.8500022888184
89.581,82.0000076293945
89.591,99.890007019043
89.601,108.880004882812
89.611,123.580009460449
89.621,115.990005493164
89.631,107.340003967285
89.641,90.4000015258789
89.651,79.0600051879883
89.661,87.390007019043
89.671,91.8000030517578
89.681,89.0000076293945
89.691,84.4500045776367
89.701,72.8300018310547
89.711,66.0100021362305
89.721,46.6900024414062
89.731,31.4600009918213
89.741,21.1700000762939
89.751,14.0300006866455
89.761,8.64000034332275
89.77,21.9100017547607
89.78,21.310001373291
89.79,19.3900012969971
89.8,17.6700000762939
89.81,29.6800022125244
89.82,18.9700012207031
89.83,-5.74000024795532
89.84,-30.5500011444092
89.85,-31.4300022125244
89.86,-39.5800018310547
89.87,-55.930004119873
89.88,-66.3600006103516
89.89,-60.620002746582
89.9,-36.2200012207031
89.91,-13.9300003051758
89.92,24.5300006866455
89.93,71.640007019043
89.94,108.570007324219
89.95,131.18000793457
89.96,132.960006713867
89.969,124.560005187988
89.979,98.9800033569336
89.989,51.1700019836426
89.999,24.3900012969971
90.009,2.20000004768372
90.019,-47.6300010681152
90.029,-67.4400024414062
90.039,-75.9500045776367
90.049,-47.4200019836426
90.059,-42.2800025939941
90.069,-0.280000001192093
90.079,53.5500030517578
90.089,84.0000076293945
90.099,93.1000061035156
90.109,82.3200073242188
90.119,64.75
90.129,38.7100028991699
90.139,5.91000032424927
90.149,-12.9800004959106
90.159,-25.1300010681152
90.163,71.5400009155273
90.173,104.720001220703
90.183,136.010009765625
90.193,138.490005493164
90.203,120.43000793457
90.213,81.9700012207031
90.223,41.4700012207031
90.233,14.6300010681152
90.243,6.47000026702881
90.253,-2.27000021934509
90.263,5.5600004196167
90.273,32.370002746582
90.283,69.120002746582
90.293,86.4500045776367
90.303,91.5200042724609
90.313,95.0200042724609
90.321,87.2900009155273
90.331,50.5400009155273
90.341,4.76000022888184
90.351,-27.9600009918213
90.361,-51.7600021362305
90.371,-80.7800064086914
90.381,-97.6100082397461
90.391,-107.800003051758
90.401,-92.0100021362305
90.411,-55.5400009155273
90.421,-39.2000007629395
90.431,-18.3400001525879
90.441,9.97000026702881
90.451,43.9600028991699
90.461,76.3300018310547
90.471,92.640007019043
90.481,98.4200057983398
90.491,99.4700012207031
90.501,92.8500061035156
90.511,83.6800003051758
90.52,67.2300033569336
90.53,54.4600028991699
90.54,35.5200004577637
90.55,15.8200006484985
90.56,2.48000001907349
90.57,3.78000020980835
90.58,17.0799999237061
90.59,15.2600011825562
90.6,19.7400016784668
90.61,36.5
90.62,53.0200042724609
90.63,39.6500015258789
90.64,26.3500003814697
90.65,27.6800022125244
90.66,15.4300003051758
90.67,-3.57000017166138
90.68,-30.6900005340576
90.69,-65.8300018310547
90.7,-80.25
90.71,-65.9700012207031
90.719,-60.8300018310547
90.729,-52.9200019836426
90.739,-27.6100006103516
90.749,18.3700008392334
90.759,58.5200042724609
90.769,77.7000045776367
90.779,81.2300033569336
90.789,83.6500015258789
90.799,58.9000015258789
90.809,19.8400001525879
90.819,-21.4500007629395
90.829,-67.1300048828125
90.839,-98.0000076293945
90.849,-97.4700012207031
90.859,-87.9200057983398
90.869,-50.1500015258789
90.879,7.59000015258789
90.889,65.2700042724609
90.899,98.4200057983398
90.909,114.17000579834
90.913,47.2500038146973
90.923,24.1500015258789
90.933,-5.8100004196167
90.943,-28.4500007629395
90.953,-17.0400009155273
90.963,-8.78000068664551
90.973,5.14000034332275
90.983,36.9200019836426
90.993,40.0700035095215
91.003,61.4900016784668
91.013,109.51000213623
91.023,111.26000213623
91.033,90.5100021362305
91.043,82.8400039672852
91.053,87.6700057983398
91.063,80.390007019043
91.071,73.8100051879883
91.081,86.4500045776367
91.091,71.7800064086914
91.101,77.3100051879883
91.111,91.4200057983398
91.121,111.370002746582
91.131,116.200004577637
91.141,117.770004272461
91.151,117.040008544922
91.161,130.130004882812
91.171,151.720001220703
91.181,143.810012817383
91.191,126.520004272461
91.201,119.380004882812
91.211,115.67000579834
91.221,87.8500061035156
91.231,39.3400001525879
91.241,16.4500007629395
91.251,1.6800000667572
91.261,9.73000049591064
91.27,6.79000043869019
91.28,-16.2400016784668
91.29,2.17000007629395
91.3,41.9300003051758
91.31,68.1100006103516
91.32,71.8500061035156
91.33,69.3000030517578
91.34,67.5500030517578
91.35,61.6300010681152
91.36,36.6800003051758
91.37,5
91.38,-60.9000015258789
91.39,-109.410003662109
91.4,-122.18000793457
91.41,-125.540008544922
91.42,-151.650009155273
91.43,-191.130004882812
91.44,-165.970001220703
91.45,-143.710006713867
91.46,-87.8500061035156
91.469,-42.7700004577637
91.479,-55.2600021362305
91.489,-88.4800033569336
91.499,-97.120002746582
91.509,-98.9400024414062
91.519,-79.5900039672852
91.529,-98.1000061035156
91.539,-132.190002441406
91.549,-131.18000793457
91.559,-114.940002441406
91.569,-63.9400024414062
91.579,-26.7400016784668
91.589,-4.90000009536743
91.599,11.9000005722046
91.609,43.8500022888184
91.619,96.9500045776367
91.629,125.470008850098
91.639,110.140007019043
91.649,110.140007019043
91.659,104.26000213623
91.663,-69.0900039672852
91.673,-89.6300048828125
91.683,-102.090003967285
91.693,-123.340003967285
91.703,-117.810005187988
91.713,-77.8000030517578
91.723,-53.9700012207031
91.733,-17.4600009918213
91.743,9.41000080108643
91.753,31.9200019836426
91.763,54.0400009155273
91.773,66.9900054931641
91.783,67.3400039672852
91.793,70.7000045776367
91.803,85.5000076293945
91.813,94.5300064086914
91.821,104.160003662109
91.831,108.110008239746
91.841,106.960006713867
91.851,118.610008239746
91.861,130.130004882812
91.871,137.860000610352
91.881,134.5
91.891,123.060005187988
91.901,96.0400009155273
91.911,61.0400047302246
91.921,43.0100021362305
91.931,46.0200004577637
91.941,64.5400009155273
91.951,64.5699996948242
91.961,53.4800033569336
91.971,65.6600036621094
91.981,106.960006713867
91.991,140.420013427734
92.001,136.110000610352
92.011,106.92000579834
92.02,66.2900009155273
92.03,43.7100028991699
92.04,12.4600009918213
92.05,-45.5700035095215
92.06,-99.5400009155273
92.07,-110.040008544922
92.08,-87.7100067138672
92.09,-50.0100021362305
92.1,-12.0000009536743
92.11,32.6900024414062
92.12,87.9500045776367
92.13,149.520004272461
92.14,187.600006103516
92.15,205.170013427734
92.16,213.110015869141
92.17,224.070007324219
92.18,216.050003051758
92.19,180.460006713867
92.2,131.490005493164
92.21,84.6600036621094
92.219,53.5800018310547
92.229,30.5900020599365
92.239,2.41000008583069
92.249,-29.0100021362305
92.259,-33.7400016784668
92.269,-21.2400016784668
92.279,-2.10000014305115
92.289,-6.37000036239624
92.299,-21.1700000762939
92.309,-40.2100028991699
92.319,-49.4500007629395
92.329,-66.0100021362305
92.339,-100.130004882812
92.349,-139.820007324219
92.359,-139.540008544922
92.369,-124.070007324219
92.379,-88.5800018310547
92.389,-55.0200042724609
92.399,-5.32000017166138
92.409,45.6400032043457
92.413,90.7200012207031
92.423,51.9400024414062
92.433,9.76000022888184
92.443,-56.5900039672852
92.453,-111.960006713867
92.463,-138.980010986328
92.473,-152.390014648438
92.483,-148.640014648438
92.493,-136.740005493164
92.503,-114.940002441406
92.513,-84.5600051879883
92.523,-47.0400009155273
92.533,-36.5700035095215
92.543,-24.1100006103516
92.553,-20.1600017547607
92.563,-13.6800003051758
92.571,-10.0400009155273
92.581,-14.7700004577637
92.591,-25.9300003051758
92.601,-17.6000003814697
92.611,-1.99000012874603
92.621,3.95000028610229
92.631,17.0400009155273
92.641,37.060001373291
92.651,48.3300018310547
92.661,38.5300025939941
92.671,24.1500015258789
92.681,10.2500009536743
92.691,1.89000010490417
92.701,-20.1900005340576
92.711,-35.1400032043457
92.721,-48.120002746582
92.731,-40.3500022888184
92.741,-27.7900009155273
92.751,-4.16000032424927
92.761,11.9300003051758
92.77,45.1100006103516
92.78,72.3400039672852
92.79,86.2000045776367
92.8,93.2400054931641
92.81,127.260009765625
92.82,154.070007324219
92.83,160.890014648438
92.84,172.020004272461
92.85,203.560012817383
92.86,230.300018310547
92.87,252.030014038086
92.88,266.800018310547
92.89,281.150024414062
92.9,294.660003662109
92.91,289.340026855469
92.92,248.150009155273
92.93,203.560012817383
92.94,178.740005493164
92.95,141.050003051758
92.96,78.75
92.965,-83.120002746582
92.975,-90.6500015258789
92.985,-98.8400039672852
92.995,-96.7400054931641
93.005,-106.120002746582
93.015,-111.540008544922
93.025,-118.020004272461
93.035,-124.530006408691
93.045,-116.200004577637
93.055,-114.060005187988
93.065,-120.400009155273
93.075,-126.240005493164
93.085,-118.230003356934
93.095,-119.870002746582
93.105,-104.020004272461
93.115,-91.0000076293945
93.122,-67.0200042724609
93.132,-36.4300003051758
93.142,9.45000076293945
93.152,41.8900032043457
93.162,82.9100036621094
93.172,116.970008850098
93.182,145.420013427734
93.192,181.470001220703
93.202,208.700012207031
93.212,214.93000793457
93.222,227.360015869141
93.232,235.440017700195
93.242,211.080017089844
93.252,170.060012817383
93.262,146.230010986328
93.272,131.040008544922
93.282,103.810005187988
93.292,62.4700012207031
93.302,30.5900020599365
93.312,-2.52000021934509
93.321,-22.1900005340576
93.331,-45.2200012207031
93.341,-74.2300033569336
93.351,-68.390007019043
93.361,-66.0800018310547
93.371,-69.75
93.381,-72.0600051879883
93.391,-57.9900016784668
93.401,-36.2900009155273
93.411,-25.060001373291
93.421,-20.8900012969971
93.431,-22.1500015258789
93.441,-42.0000038146973
93.451,-40.6000022888184
93.461,-30.9400005340576
93.471,-42.8400001525879
93.481,-52.4600028991699
93.491,-51.4500007629395
93.501,-28.2800006866455
93.511,-23.730001449585
93.52,-47.4600028991699
93.53,-39.4800033569336
93.54,-29.4700012207031
93.55,-34.0900001525879
93.56,-40.0400009155273
93.57,-43.8900032043457
93.58,-49.0000038146973
93.59,-49.2100028991699
93.6,-58.1700019836426
93.61,-45.1800003051758
93.62,-37.2700004577637
93.63,-31.9900016784668
93.64,-4.51000022888184
93.65,29.1900005340576
93.66,46.8300018310547
93.67,52.6000022888184
93.68,80.7800064086914
93.69,107.900001525879
93.7,100.970001220703
93.71,72.8000030517578
93.715,56.7300033569336
93.725,38.5300025939941
93.735,42.310001373291
93.745,51.4800033569336
93.755,39.4100036621094
93.765,31.3600006103516
93.775,50.0100021362305
93.785,69.3300018310547
93.795,52.9900016784668
93.805,38.4600028991699
93.815,31.9900016784668
93.825,13.4400005340576
93.835,-5.88000011444092
93.845,-8.07999992370605
93.855,9.13000011444092
93.865,10.3900003433228
93.872,-3.95000028610229
93.882,16.310001373291
93.892,40
93.902,44.620002746582
93.912,43.5000038146973
93.922,42.2800025939941
93.932,24.4300003051758
93.942,5.88000011444092
93.952,18.6500015258789
93.962,20.230001449585
93.972,-0.21000000834465
93.982,1.89000010490417
93.992,26.2800006866455
94.002,15.2200002670288
94.012,2.17000007629395
94.022,7.63000059127808
94.032,-12.1800003051758
94.042,-17.7800006866455
94.052,-2.10000014305115
94.062,12.0000009536743
94.071,1.4300000667572
94.081,-3.08000016212463
94.091,25.6200008392334
94.101,32.5800018310547
94.111,6.54000043869019
94.121,0.450000017881393
94.131,0.240000009536743
94.141,-17.9900016784668
94.151,-24.2900009155273
94.161,1.19000005722046
94.171,-8.40000057220459
94.181,-30.3800010681152
94.191,3.29000020027161
94.201,33.1100006103516
94.211,8.53999996185303
94.221,-5.60000038146973
94.231,-2.38000011444092
94.241,-26.4600009918213
94.251,-35.1400032043457
94.261,-2.06000018119812
94.27,-8.28999996185303
94.28,-31.1100006103516
94.29,0.380000025033951
94.3,30.4100017547607
94.31,7.14000034332275
94.32,5.63000011444092
94.33,24.3200016021729
94.34,12.3900003433228
94.35,1.29000008106232
94.36,11.2000007629395
94.37,3.67000007629395
94.38,-15.0500011444092
94.39,-2.45000004768372
94.4,-3.1800000667572
94.41,-28.8000011444092
94.42,-18.9000015258789
94.43,-1.6100001335144
94.44,-23.8300018310547
94.45,-25.3700008392334
94.46,-11.3700008392334
94.464,-13.7900009155273
94.474,-4.97000026702881
94.484,-9.45000076293945
94.494,-10.6700000762939
94.504,-1.19000005722046
94.514,-11.6200008392334
94.524,-28.9400005340576
94.534,-22.4300003051758
94.544,-11.1300001144409
94.554,-23.1000003814697
94.564,-18.8300018310547
94.574,-11.7200002670288
94.584,-17.8800010681152
94.594,-17.25
94.604,-11.9700002670288
94.614,-13.0200004577637
94.622,-16.8700008392334
94.632,-2.41000008583069
94.642,-3.39000010490417
94.652,-23.0300006866455
94.662,-16.3400001525879
94.672,-15.1200008392334
94.682,-22.4000015258789
94.692,-12.3200006484985
94.702,-23.9700012207031
94.712,-57.8900032043457
94.722,-70.6600036621094
94.732,-80.5700073242188
94.742,-89.0000076293945
94.752,-65.2400054931641
94.762,-30.9700012207031
94.772,-10.6700000762939
94.782,21.560001373291
94.792,65.1300048828125
94.802,82.4200057983398
94.812,93.5500030517578
94.821,91.0300064086914
94.831,63.1400032043457
94.841,34.370002746582
94.851,6.75000047683716
94.861,-24.6400012969971
94.871,-47.2500038146973
94.881,-43.6400032043457
94.891,-22.3600006103516
94.901,-3.32000017166138
94.911,33.25
94.921,66.6399993896484
94.931,76.6100006103516
94.941,85.1900024414062
94.951,82.4900054931641
94.961,37.5900001525879
94.971,12.7000007629395
94.981,1.99000012874603
94.991,-42.8000030517578
95.001,-60.2000045776367
95.011,-51.2000007629395
95.02,-68.9800033569336
95.03,-79.1000061035156
95.04,-50.430004119873
95.05,-47.7000007629395
95.06,-67.7900009155273
95.07,-62.2300033569336
95.08,-64.5400009155273
95.09,-79.4100036621094
95.1,-80.8100051879883
95.11,-54.180004119873
95.12,-47.6300010681152
95.13,-42.9400024414062
95.14,-23.6600017547607
95.15,-27.7900009155273
95.16,-56.2800025939941
95.17,-62.7900047302246
95.18,-52.7400016784668
95.19,-69.5800018310547
95.2,-71.5400009155273
95.21,-46.7900009155273
95.215,17.9200000762939
95.225,31.0100021362305
95.235,48.0900039672852
95.245,46.620002746582
95.255,36.2600021362305
95.265,30.480001449585
95.275,18.4100017547607
95.285,11.4800004959106
95.295,25.2700004577637
95.305,60.370002746582
95.315,97.1900024414062
95.325,122.710006713867
95.335,147.910003662109
95.345,145.18000793457
95.355,132.260009765625
95.365,110.950004577637
95.372,60.4400024414062
95.382,-11.0600004196167
95.392,-51.310001373291
95.402,-72.620002746582
95.412,-96.1800079345703
95.422,-127.120002746582
95.432,-127.220008850098
95.442,-111.610008239746
95.452,-95.5800018310547
95.462,-72.1000061035156
95.472,-57.8900032043457
95.482,-48.4700012207031
95.492,-55.5400009155273
95.502,-37.3400001525879
95.512,-32.8600006103516
95.522,-34.7900009155273
95.532,-12.0400009155273
95.542,22.3600006103516
95.552,49.310001373291
95.562,81.2700042724609
95.571,105.910003662109
95.581,102.020004272461
95.591,63.2400016784668
95.601,16.8000011444092
95.611,-10.5300006866455
95.621,-38.3600006103516
95.631,-66.7100067138672
95.641,-78.3300018310547
95.651,-68.1100006103516
95.661,-56.870002746582
95.671,-53.4800033569336
95.681,-48.0500030517578
95.691,-24.1500015258789
95.701,-1.85000014305115
95.711,8.89000034332275
95.721,13.4400005340576
95.731,20.3300018310547
95.741,12.7700004577637
95.751,-9.17000007629395
95.761,-32.620002746582
95.77,-52.2900009155273
95.78,-83.7500076293945
95.79,-89.1100006103516
95.8,-82.6700057983398
95.81,-72.5500030517578
95.82,-49.1400032043457
95.83,-16.3400001525879
95.84,-1.6100001335144
95.85,9.38000011444092
95.86,-1.4300000667572
95.87,-7.70000028610229
95.88,-5.28000020980835
95.89,-29.9600009918213
95.9,-57.8500022888184
95.91,-60.4100036621094
95.92,-73.5699996948242
95.93,-77.870002746582
95.94,-66.0800018310547
95.95,-40.4600028991699
95.96,-3.74000024795532
95.965,-7.70000028610229
95.975,-26.1100006103516
95.985,-36.120002746582
95.995,-28.8400020599365
96.005,-4.51000022888184
96.015,3.1800000667572
96.025,32.5800018310547
96.035,54.7400016784668
96.045,73.7400054931641
96.055,80.3600006103516
96.065,76.3300018310547
96.075,58.870002746582
96.085,25.9700012207031
96.095,-9.76000022888184
96.105,-41.120002746582
96.115,-60.0200042724609
96.122,-91.1000061035156
96.132,-97.2300033569336
96.142,-103.280006408691
96.152,-126.700004577637
96.162,-115.290008544922
96.172,-113.92000579834
96.182,-97.2600021362305
96.192,-84.9800033569336
96.202,-83.7200012207031
96.212,-79.8000030517578
96.222,-82.4200057983398
96.232,-44.1300010681152
96.242,-14.9100008010864
96.252,4.69000005722046
96.262,41.5100021362305
96.272,79.9700012207031
96.282,91.3500061035156
96.292,100.480003356934
96.302,115.500007629395
96.312,115.990005493164
96.321,93.0300064086914
96.331,53.9000015258789
96.341,26.1400012969971
96.351,-6.54000043869019
96.361,-29.4300022125244
96.371,-56.7700042724609
96.381,-56.4500045776367
96.391,-29.2200012207031
96.401,13.4400005340576
96.411,48.0900039672852
96.421,92.1500015258789
96.431,137.620010375977
96.441,166.390014648438
96.451,168.730010986328
96.461,133.380004882812
96.471,75.140007019043
96.481,8.15000057220459
96.491,-59.4600028991699
96.501,-141.75
96.511,-191.200012207031
96.52,-225.360015869141
96.53,-226.130004882812
96.54,-197.990005493164
96.55,-178.43000793457
96.56,-144.860000610352
96.57,-116.790008544922
96.58,-84.5900039672852
96.59,-74.9700012207031
96.6,-87.1800079345703
96.61,-105.940002441406
96.62,-95.9700012207031
96.63,-64.8500061035156
96.64,-38.6700019836426
96.65,7.73000049591064
96.66,13.6100006103516
96.67,9.52000045776367
96.68,27.8900012969971
96.69,53.370002746582
96.7,49.2100028991699
96.71,38.8500022888184
96.715,-6.19000005722046
96.725,-20.7900009155273
96.735,-13.2300004959106
96.745,5.1100001335144
96.755,15.4300003051758
96.765,31.9200019836426
96.775,50.8900032043457
96.785,76.4400024414062
96.795,85.8200073242188
96.805,102.270004272461
96.815,116.830001831055
96.825,113.080001831055
96.835,119.280006408691
96.845,128.520004272461
96.855,148.43000793457
96.865,132.470001220703
96.872,87.2900009155273
96.882,48.9600028991699
96.892,2.45000004768372
96.902,-41.3300018310547
96.912,-70.4900054931641
96.922,-104.330001831055
96.932,-130.300003051758
96.942,-143.880004882812
96.952,-156.170013427734
96.962,-149.59001159668
96.972,-123.690002441406
96.982,-120.850006103516
96.992,-109.090003967285
97.002,-80.0800018310547
97.012,-53.9700012207031
97.022,-79.3100051879883
97.032,-79.3100051879883
97.042,-61.2100028991699
97.052,-84.4500045776367
97.062,-101.600006103516
97.071,-89.7400054931641
97.081,-80.4600067138672
97.091,-82.2500076293945
97.101,-72.0300064086914
97.111,-48.5800018310547
97.121,-30.8700008392334
97.131,-31.9200019836426
97.141,-20.8600006103516
97.151,-4.69000005722046
97.161,16.480001449585
97.171,14.5600004196167
97.181,26.810001373291
97.191,37.4100036621094
97.201,48.5400009155273
97.211,65.3800048828125
97.221,64.9600067138672
97.231,67.370002746582
97.241,79.8000030517578
97.251,101.740005493164
97.261,102.550003051758
97.269,80.3600006103516
97.279,49.8000030517578
97.289,-3.01000022888184
97.299,-44.1700019836426
97.309,-113.220008850098
97.319,-171.990005493164
97.329,-194.980010986328
97.339,-188.230010986328
97.349,-188.330001831055
97.359,-161.280014038086
97.369,-119.000007629395
97.379,-93.9400024414062
97.389,-89.3500061035156
97.399,-103.910003662109
97.409,-136.600006103516
97.419,-115.220008850098
97.429,-75.25
97.439,-29.4300022125244
97.449,19.4600009918213
97.459,66.6000061035156
97.463,345.940002441406
97.473,368.27001953125
97.483,331.550018310547
97.493,251.300018310547
97.503,171.040008544922
97.513,99.7100067138672
97.523,20.9300003051758
97.533,-43.0800018310547
97.543,-109.200004577637
97.553,-179.34001159668
97.563,-215.210006713867
97.573,-243.630004882812
97.583,-292.210021972656
97.593,-340.060028076172
97.603,-358.680023193359
97.613,-342.300018310547
97.622,-304.530029296875
97.632,-241.950012207031
97.642,-180.040008544922
97.652,-88.4400024414062
97.662,-12.1100006103516
97.672,49.0300025939941
97.682,96.7000045776367
97.692,106.540008544922
97.702,125.540008544922
97.712,133.070007324219
97.722,132.470001220703
97.732,118.580001831055
97.742,137.370010375977
97.752,143.080001831055
97.762,169.150009155273
97.772,215.770004272461
97.782,254.760009765625
97.792,295.680023193359
97.802,332.740020751953
97.812,337.850006103516
97.821,298.970001220703
97.831,233.760009765625
97.841,152.040008544922
97.851,66.7100067138672
97.861,-34.1599998474121
97.871,-144.650009155273
97.881,-226.060012817383
97.891,-281.990020751953
97.901,-318.950012207031
97.911,-347.130004882812
97.921,-328.890014648438
97.931,-312.440002441406
97.941,-308.700012207031
97.951,-294.52001953125
97.961,-293.050018310547
97.971,-278.600006103516
97.981,-242.160018920898
97.991,-208.460006713867
98.001,-179.580001831055
98.011,-107.380004882812
98.019,-20.1600017547607
98.029,67.0200042724609
98.039,144.300003051758
98.049,203.450012207031
98.059,245.980010986328
98.069,284.300018310547
98.079,312.930023193359
98.089,310.690002441406
98.099,304.920013427734
98.109,289.550018310547
98.119,251.610015869141
98.129,182.520004272461
98.139,114.730003356934
98.149,45.1500015258789
98.159,-19.8400001525879
98.169,-67.7900009155273
98.179,-102.020004272461
98.189,-118.470008850098
98.199,-116.410003662109
98.209,-103.840003967285
98.213,-19.25
98.223,-6.37000036239624
98.233,-19.9500007629395
98.243,-38.1800003051758
98.253,-73.5300064086914
98.263,-94.6000061035156
98.273,-117.000007629395
98.283,-137.970001220703
98.293,-161.450012207031
98.303,-152.070007324219
98.313,-108.43000793457
98.323,-65.0600051879883
98.333,-29.2900009155273
98.343,2.52000021934509
98.353,39.6900024414062
98.363,62.0200042724609
98.372,64.9900054931641
98.382,58.1700019836426
98.392,60.620002746582
98.402,61.7700042724609
98.412,48.1900024414062
98.422,26.3200016021729
98.432,40.1100006103516
98.442,58.3400039672852
98.452,49.3800010681152
98.462,38.8800010681152
98.472,48.2300033569336
98.482,59.3200035095215
98.492,56.310001373291
98.502,44.6600036621094
98.512,56.2100028991699
98.522,79.1000061035156
98.532,89.5600051879883
98.542,81.2000045776367
98.552,79.4100036621094
98.562,72.4800033569336
98.571,39.0900001525879
98.581,15.8200006484985
98.591,-3.64000010490417
98.601,-1.89000010490417
98.611,-14.1700010299683
98.621,-27.4000015258789
98.631,-9.10000038146973
98.641,22.5400009155273
98.651,38.4300003051758
98.661,38.810001373291
98.671,40.7000007629395
98.681,37.9700012207031
98.691,17.5
98.701,10.2900009155273
98.711,21.9400005340576
98.721,35.2400016784668
98.731,31.9900016784668
98.741,22.0500011444092
98.751,24.1100006103516
98.761,24.6400012969971
98.769,10.6400003433228
98.779,-14.2100009918213
98.789,-14.0300006866455
98.799,-11.5800008773804
98.809,-6.40000009536743
98.819,0.420000016689301
98.829,33.8400001525879
98.839,66.0100021362305
98.849,80.0100021362305
98.859,79.0600051879883
98.869,103.350006103516
98.879,105.210006713867
98.889,102.480003356934
98.899,100.76000213623
98.909,85.7500076293945
98.919,70.4500045776367
98.929,44.6900024414062
98.939,35.560001373291
98.949,22.7800006866455
98.959,6.44000053405762
98.963,-50.2600021362305
98.973,-47.2500038146973
98.983,-47.4200019836426
98.993,-59.9900016784668
99.003,-57.2900009155273
99.013,-55.1900024414062
99.023,-55.120002746582
99.033,-63.3800048828125
99.043,-48.5800018310547
99.053,-35.1400032043457
99.063,-25.1600017547607
99.073,-18.2700004577637
99.083,-11.7600002288818
99.093,-34.6100006103516
99.103,-62.6100044250488
99.113,-67.6500015258789
99.122,-67.1300048828125
99.132,-81.7900009155273
99.142,-84.9400024414062
99.152,-47.1100006103516
99.162,-9.34000015258789
99.172,28.730001449585
99.182,69.370002746582
99.192,112.590003967285
99.202,132.440002441406
99.212,133.84001159668
99.222,138.420013427734
99.232,139.650009155273
99.242,118.440002441406
99.252,105.350006103516
99.262,95.5100021362305
99.272,84.3800048828125
99.282,59.6000022888184
99.292,52.3900032043457
99.302,47.6000022888184
99.312,21.1700000762939
99.321,9.10000038146973
99.331,15.7800006866455
99.341,7.77000045776367
99.351,-11.3400001525879
99.361,-20.5400009155273
99.371,-30.9400005340576
99.381,-51.9700012207031
99.391,-56.560001373291
99.401,-45.810001373291
99.411,-51.4800033569336
99.421,-43.4300003051758
99.431,-7.80000019073486
99.441,14.5600004196167
99.451,11.0600004196167
99.461,26.6000003814697
99.471,49.8400039672852
99.481,45.6000022888184
99.491,44.0300025939941
99.501,49.4500007629395
99.511,31.8500022888184
99.519,12.2800006866455
99.529,17.6700000762939
99.539,23.7600002288818
99.549,-0.940000057220459
99.559,-3.46000027656555
99.569,7.49000024795532
99.579,3.60000014305115
99.589,-3.1800000667572
99.599,13.8600006103516
99.609,10.5000009536743
99.619,1.47000002861023
99.629,11.7600002288818
99.639,28.8700008392334
99.649,15.5000009536743
99.659,2.41000008583069
99.669,8.43000030517578
99.679,-13.4400005340576
99.689,-31.2900009155273
99.699,-24.5000019073486
99.709,-27.3700008392334
99.713,8.57000064849854
99.723,39.4400024414062
99.733,35.4900016784668
99.743,30.2700023651123
99.753,52.3600006103516
99.763,46.8600006103516
99.773,26.7000007629395
99.783,35.2800025939941
99.793,33.7400016784668
99.803,8.99000072479248
99.813,10.9200000762939
99.823,10.6700000762939
99.833,-13.8200006484985
99.843,-22.0500011444092
99.853,-10.7800006866455
99.863,-26.7400016784668
99.872,-37.870002746582
99.882,-13.5400009155273
99.892,-8.36000061035156
99.902,-10.3200006484985
99.912,1.85000014305115
99.922,3.85000014305115
99.932,1.6100001335144
99.942,18.9300003051758
99.952,24.6000003814697
99.962,5.53000020980835
99.972,0
99.982,11.0200004577637
99.992,6.40000009536743
100.002,-4.13000011444092
100.012,0.100000001490116
100.022,-3.01000022888184
100.032,-8.1200008392334
100.042,3.15000009536743
100.052,-3.15000009536743
100.062,-18.2000007629395
100.071,-6.40000009536743
100.081,-0.240000009536743
100.091,-9.94000053405762
100.101,-3.1100001335144
100.111,1.71000003814697
100.121,-5.67000007629395
100.131,2.94000005722046
100.141,11.2300004959106
100.151,-7.73000049591064
100.161,-13.4400005340576
100.171,0.0700000002980232
100.181,-2.38000011444092
100.191,-0.730000019073486
100.201,5.8100004196167
100.211,-5.14000034332275
100.221,-2.41000008583069
100.231,14.3800010681152
100.241,6.96000051498413
100.251,-2.83000016212463
100.261,1.4300000667572
100.269,-0.910000026226044
100.279,-4.44000005722046
100.289,-3.46000027656555
100.299,-6.05000019073486
100.309,-8.22000026702881
100.319,3.53000020980835
100.329,5.32000017166138
100.339,-4.01999998092651
100.349,0.800000011920929
100.359,6.37000036239624
100.369,6.93000030517578
100.379,7.1700005531311
100.389,0.630000054836273
100.399,0.140000000596046
100.409,12.8400001525879
100.419,7.1700005531311
100.429,-2.27000021934509
100.439,2.59000015258789
100.449,-1.08000004291534
100.459,-10.710000038147
100.463,7.38000011444092
100.473,6.09000015258789
100.483,19.6700000762939
100.493,12.6700010299683
100.503,12.5600004196167
100.513,25.3400020599365
100.523,16.1000003814697
100.533,-1.36000001430511
100.543,0.800000011920929
100.553,-1.12000000476837
100.563,-7.1700005531311
100.573,-1.82000005245209
100.583,-7.28000020980835
100.593,-13.2300004959106
100.603,2.90000009536743
100.613,13.6100006103516
100.622,7.63000059127808
100.632,29.5700016021729
100.642,34.5400009155273
100.652,13.3700008392334
100.662,29.9900016784668
100.672,18.1300010681152
100.682,-3.92000007629395
100.692,4.90000009536743
100.702,5
100.712,-6.40000009536743
100.722,13.3700008392334
100.732,16.060001373291
100.742,-13.1600008010864
100.752,-7.24000024795532
100.762,-6.40000009536743
100.772,-27.6800022125244
100.782,-12.0700006484985
100.792,-14.5200004577637
100.802,-28.4900016784668
100.812,-10.3200006484985
100.821,-3.78000020980835
100.831,-14.1700010299683
100.841,1.99000012874603
100.851,18.1600017547607
100.861,9.97000026702881
100.871,21.4200000762939
100.881,37.5900001525879
100.891,25.1600017547607
100.901,23.2400016784668
100.911,23.060001373291
100.921,-1.12000000476837
100.931,-11.2300004959106
100.941,-10.3200006484985
100.951,-28.0700016021729
100.961,-42.3500022888184
100.971,-26.1100006103516
100.981,-18.9000015258789
100.991,-21.1700000762939
101.001,8.19000053405762
101.011,34.6100006103516
101.019,39.3000030517578
101.029,55.4000015258789
101.039,53.5100021362305
101.049,34.3000030517578
101.059,33.0400009155273
101.069,39.5100021362305
101.079,15.5400009155273
101.089,-5.88000011444092
101.099,2.59000015258789
101.109,7.49000024795532
101.119,-2.27000021934509
101.129,10.9200000762939
101.139,17.3600006103516
101.149,14.3500003814697
101.159,8.64000034332275
101.169,12.3900003433228
101.179,-4.13000011444092
101.189,-13.1600008010864
101.199,3.39000010490417
101.209,1.00999999046326
101.213,-9.20000076293945
101.223,-0.490000009536743
101.233,6.26000022888184
101.243,2.38000011444092
101.253,-5
101.263,-2.66000008583069
101.273,-5.25000047683716
101.283,-7.73000049591064
101.293,3.57000017166138
101.303,2.52000021934509
101.313,-8.05000019073486
101.323,3.92000007629395
101.333,22.9200019836426
101.343,8.57000064849854
101.353,3.88000011444092
101.363,18.4100017547607
101.372,11.6500005722046
101.382,-15.2600011825562
101.392,-19.8800010681152
101.402,0.700000047683716
101.412,3.25000023841858
101.422,-10.4300003051758
101.432,-8.47000026702881
101.442,8.36000061035156
101.452,-2.87000012397766
101.462,-11.4800004959106
101.472,4.41000032424927
101.482,5.5600004196167
101.492,-6.82000017166138
101.502,-6.40000009536743
101.512,4.62000036239624
101.522,2.66000008583069
101.532,-9.17000007629395
101.542,-17.8500003814697
101.552,-1.08000004291534
101.562,5.1100001335144
101.57,-10.8100004196167
101.58,-7.66000032424927
101.59,9.03000068664551
101.6,-2.83000016212463
101.61,-18.3000011444092
101.62,-8.92000007629395
101.63,-10.7400007247925
101.64,-28.2400016784668
101.65,-38.9200019836426
101.66,-29.0500011444092
101.67,-13.9600009918213
101.68,-20.2600002288818
101.69,-27.3700008392334
101.7,-12.2800006866455
101.71,-12.3900003433228
101.72,-40.1800003051758
101.73,-61.7400016784668
101.74,-72.0300064086914
101.75,-99.0100021362305
101.76,-119.940002441406
101.769,-126.030006408691
101.779,-110.040008544922
101.789,-85.2900009155273
101.799,-61.3500022888184
101.809,-38.9500007629395
101.819,-1.54000008106232
101.829,40.4200019836426
101.839,63.8000030517578
101.849,88.370002746582
101.859,111.820007324219
101.869,135.970001220703
101.879,140
101.889,139.860000610352
101.899,140
101.909,142.730010986328
101.919,124.280006408691
101.929,94.4600067138672
101.939,83.7500076293945
101.949,71.75
101.959,34.75
101.963,-72.6900024414062
101.973,-86.620002746582
101.983,-75.4900054931641
101.993,-61.7400016784668
102.003,-69.8199996948242
102.013,-90.8200073242188
102.023,-90.1600036621094
102.033,-67.9000015258789
102.043,-51.5200042724609
102.053,-55.2300033569336
102.063,-51.9700012207031
102.073,-29.6100006103516
102.083,0.140000000596046
102.093,4.51000022888184
102.103,-5.07000017166138
102.113,-2.55000019073486
102.122,5.98000049591064
102.132,-0.170000001788139
102.142,-26.1100006103516
102.152,-42.1700019836426
102.162,-44.060001373291
102.172,-38.6700019836426
102.182,-44.620002746582
102.192,-56.5200042724609
102.202,-55.3300018310547
102.212,-42.560001373291
102.222,-25.8600006103516
102.232,-30.060001373291
102.242,-34.5400009155273
102.252,-37.8300018310547
102.262,-45.9500007629395
102.272,-37.9700012207031
102.282,-36.4700012207031
102.292,-52.0400009155273
102.302,-47.6300010681152
102.312,-23.6900005340576
102.32,-2.27000021934509
102.33,-3.85000014305115
102.34,3.22000026702881
102.35,-6.89000034332275
102.36,-13.7200002670288
102.37,-22.3300018310547
102.38,-53.6500015258789
102.39,-93.7600021362305
102.4,-124.250007629395
102.41,-125.510009765625
102.42,-130.440002441406
102.43,-140.170013427734
102.44,-136.25
102.45,-118.230003356934
102.46,-102.690002441406
102.47,-103.600006103516
102.48,-114.830001831055
102.49,-129.570007324219
102.5,-139.300003051758
102.51,-127.400009155273
102.519,-121.970008850098
102.529,-91.8000030517578
102.539,-77.3500061035156
102.549,-64.1500015258789
102.559,-40.1100006103516
102.569,-3.60000014305115
102.579,15.9900007247925
102.589,36.5700035095215
102.599,55.1600036621094
102.609,79.8000030517578
102.619,104.860008239746
102.629,110.810005187988
102.639,124.700004577637
102.649,134.920013427734
102.659,154.940002441406
102.669,178.990005493164
102.679,177.030014038086
102.689,148.400009155273
102.699,104.68000793457
102.709,78.3300018310547
102.713,-67.0900039672852
102.723,-48.7900009155273
102.733,-39.060001373291
102.743,-28.2800006866455
102.753,-8.85000038146973
102.763,17.3600006103516
102.773,57.7500038146973
102.783,98.9800033569336
102.793,149.660003662109
102.803,204.640014648438
102.813,259.210021972656
102.823,312.160003662109
102.833,331.830017089844
102.843,331.450012207031
102.853,287.910003662109
102.863,205.34001159668
102.872,123.480003356934
102.882,19.3900012969971
102.892,-74.9700012207031
102.902,-161.59001159668
102.912,-242.300018310547
102.922,-303.100006103516
102.932,-332.220001220703
102.942,-354.580017089844
102.952,-383.250030517578
102.962,-418.980010986328
102.972,-431.300018310547
102.982,-428.400024414062
102.992,-394.450012207031
103.002,-368.550018310547
103.012,-346.600006103516
103.022,-308.910003662109
103.032,-247.690017700195
103.042,-170.240005493164
103.052,-78.3600006103516
103.062,-6.8600001335144
103.07,53.9700012207031
103.08,95.4400024414062
103.09,133.910003662109
103.1,146.120010375977
103.11,147.940002441406
103.12,137.480010986328
103.13,107.030006408691
103.14,61.0400047302246
103.15,5.53000020980835
103.16,-56.4900016784668
103.17,-105.490005493164
103.18,-147.630004882812
103.19,-181.68000793457
103.2,-203.59001159668
103.21,-207.900009155273
103.22,-187.530014038086
103.23,-146.400009155273
103.24,-91.0300064086914
103.25,-30.8700008392334
103.26,27.9600009918213
103.269,81.2700042724609
103.279,124.560005187988
103.289,144.93000793457
103.299,136.710006713867
103.309,100.200004577637
103.319,52.810001373291
103.329,-3.29000020027161
103.339,-36.5400009155273
103.349,-79.3100051879883
103.359,-105.660003662109
103.369,-117.040008544922
103.379,-126.42000579834
103.389,-113.780006408691
103.399,-78.5700073242188
103.409,-60.8300018310547
103.419,-31.5700016021729
103.429,-13.8900003433228
103.439,11.0200004577637
103.449,49.5200004577637
103.459,77.3500061035156
103.463,65.0600051879883
103.473,43.1900024414062
103.483,23.8700008392334
103.493,-17.5700016021729
103.503,-40.7400016784668
103.513,-81.7600021362305
103.523,-85.2900009155273
103.533,-60.2000045776367
103.543,-37.3400001525879
103.553,-19.6700000762939
103.563,-1.82000005245209
103.573,15.6100006103516
103.583,25.5500011444092
103.593,72.6600036621094
103.603,95.370002746582
103.613,101.850006103516
103.622,96.5300064086914
103.632,72.5900039672852
103.642,63.6300048828125
103.652,36.8900032043457
103.662,26.9100017547607
103.672,14.6600008010864
103.682,21.4500007629395
103.692,22.4700012207031
103.702,12.1400003433228
103.712,19.4900016784668
103.722,48.5100021362305
103.732,56.7000045776367
103.742,46.930004119873
103.752,67.5800018310547
103.762,76.1900024414062
103.772,58.2000045776367
103.782,37.1000022888184
103.792,23.480001449585
103.802,-1.47000002861023
103.812,-30.1300010681152
103.82,-32.5100021362305
103.83,-36.4700012207031
103.84,-34.2600021362305
103.85,-10.6000003814697
103.86,20.9600009918213
103.87,59.0800018310547
103.88,104.050003051758
103.89,134.889999389648
103.9,142.480010986328
103.91,126.350006103516
103.92,94.6700057983398
103.93,54.3500022888184
103.94,16.9700012207031
103.95,-6.54000043869019
103.96,-23.1000003814697
103.97,-38.6400032043457
103.98,-57.2900009155273
103.99,-60.930004119873
104,-56.4500045776367
104.01,-41.370002746582
104.019,-29.0500011444092
104.029,-27.0200004577637
104.039,-27.2600021362305
104.049,-20.4700012207031
104.059,-14.0000009536743
104.069,-12.6300010681152
104.079,-22.1200008392334
104.089,-47.7000007629395
104.099,-87.0400009155273
104.109,-125.720008850098
104.119,-164.390014648438
104.129,-200.550003051758
104.139,-245.730010986328
104.149,-290.810028076172
104.159,-312.200012207031
104.169,-329.380004882812
104.179,-322.240020751953
104.189,-275.760009765625
104.199,-219.060012817383
104.209,-164.360000610352
104.213,97.5800018310547
104.223,117.740005493164
104.233,141.470001220703
104.243,146.230010986328
104.253,148.640014648438
104.263,146.93000793457
104.273,146.720001220703
104.283,143.010009765625
104.293,130.760009765625
104.303,102.200004577637
104.313,63.3500022888184
104.323,23.8000011444092
104.333,-18.7200012207031
104.343,-66.9500045776367
104.353,-109.230003356934
104.363,-146.540008544922
104.372,-181.230010986328
104.382,-191.030014038086
104.392,-189.140014648438
104.402,-163.940002441406
104.412,-112.840003967285
104.422,-46.3400039672852
104.432,20.6800003051758
104.442,73.0400009155273
104.452,89.6000061035156
104.462,87.1800079345703
104.472,71.5
104.482,41.8900032043457
104.492,-4.79000043869019
104.502,-52.6000022888184
104.512,-97.7900009155273
104.522,-130.440002441406
104.532,-125.890007019043
104.542,-96.4900054931641
104.552,-55.8200035095215
104.562,-21.4500007629395
104.57,-7.98000049591064
104.58,-4.48000001907349
104.59,-4.8600001335144
104.6,-15.5700006484985
104.61,-33.810001373291
104.62,-56.6600036621094
104.63,-74.9000015258789
104.64,-77.8000030517578
104.65,-52.8500022888184
104.66,-3.32000017166138
104.67,27.3700008392334
104.68,47.3900032043457
104.69,72.1000061035156
104.7,90.7900009155273
104.71,90.6100006103516
104.72,83.7200012207031
104.73,54.6700019836426
104.74,22.3300018310547
104.75,-2.48000001907349
104.76,-29.5000019073486
104.769,-39.1600036621094
104.779,-50.6400032043457
104.789,-68.7400054931641
104.799,-83.5400009155273
104.809,-78.6800003051758
104.819,-57.7500038146973
104.829,-45.7100028991699
104.839,-48.7200012207031
104.849,-55.4000015258789
104.859,-50.6400032043457
104.869,-31.6400012969971
104.879,-11.0900001525879
104.889,-8.71000003814697
104.899,-19.6700000762939
104.909,-21.3500003814697
104.919,-8.78000068664551
104.929,8.28999996185303
104.939,23.1300010681152
104.949,32.2700004577637
104.959,45.0400009155273
104.963,102.650001525879
104.973,103.740005493164
104.983,110.320007324219
104.993,117.770004272461
105.003,99.8200073242188
105.013,74.9300003051758
105.023,57.120002746582
105.033,29.1500015258789
105.043,2.94000005722046
105.053,-33.3199996948242
105.063,-72.870002746582
105.073,-97.8200073242188
105.083,-112.450004577637
105.093,-113.750007629395
105.103,-118.860008239746
105.113,-116.160003662109
105.122,-98.8400039672852
105.132,-71.7100067138672
105.142,-31.4300022125244
105.152,-11.8300008773804
105.162,12.5600004196167
105.172,43.4700012207031
105.182,70.8400039672852
105.192,88.0200042724609
105.202,93.3400039672852
105.212,96.6000061035156
105.222,100.870002746582
105.232,96.5600051879883
105.242,80.5000076293945
105.252,50.4700012207031
105.262,18.230001449585
105.272,-6.79000043869019
105.282,-34.6500015258789
105.292,-75.9800033569336
105.302,-112.660003662109
105.312,-129.639999389648
105.32,-140.420013427734
105.33,-133.630004882812
105.34,-122.950004577637
105.35,-110.460006713867
105.36,-76.7200012207031
105.37,-30.4500007629395
105.38,3.88000011444092
105.39,15.7800006866455
105.4,12.4200010299683
105.41,12.7400007247925
105.42,-2.20000004768372
105.43,-26.3200016021729
105.44,-44.6900024414062
105.45,-57.6400032043457
105.46,-47.7400016784668
105.47,-38.1100006103516
105.48,-27.3700008392334
105.49,-17.3200016021729
105.5,-6.33000040054321
105.51,3.39000010490417
105.519,-0.21000000834465
105.529,-8.92000007629395
105.539,-31.9500007629395
105.549,-40.5300025939941
105.559,-41.120002746582
105.569,-45.4300003051758
105.579,-57.9600028991699
105.589,-55.2600021362305
105.599,-19.25
105.609,0.520000040531158
105.619,20.6100006103516
105.629,28.310001373291
105.639,42.5900001525879
105.649,54.3900032043457
105.659,33.6000022888184
105.669,5.42000007629395
105.679,-18.6900005340576
105.689,-16.060001373291
105.699,-17.8500003814697
105.709,-19.2800006866455
105.713,10.0100002288818
105.723,6.16000032424927
105.733,24.6000003814697
105.743,22.7100009918213
105.753,8.78000068664551
105.763,-8.57000064849854
105.773,-11.9000005722046
105.783,-3.71000027656555
105.793,-7.24000024795532
105.803,-15.1500005722046
105.813,-11.2300004959106
105.823,0.490000009536743
105.833,-4.13000011444092
105.843,0.520000040531158
105.853,-5.67000007629395
105.863,5.21000003814697
105.872,5.53000020980835
105.882,-13.6100006103516
105.892,-27.0500011444092
105.902,-17.9900016784668
105.912,-25.7200012207031
105.922,-40.2800025939941
105.932,-27.4400005340576
105.942,-12.3200006484985
105.952,18.4400005340576
105.962,24.1100006103516
105.972,16.2700004577637
105.982,19.0400009155273
105.992,26.1800003051758
106.002,7.66000032424927
106.012,-21.8400001525879
106.022,-22.4700012207031
106.032,-4.34000015258789
106.042,-5.39000034332275
106.052,-7.1700005531311
106.062,-3.39000010490417
106.07,9.41000080108643
106.08,7.5600004196167
106.09,-6.44000053405762
106.1,-12.6000003814697
106.11,-0.350000023841858
106.12,-4.30000019073486
106.13,-20.7900009155273
106.14,-16.480001449585
106.15,3.1100001335144
106.16,7.14000034332275
106.17,-0.280000001192093
106.18,4.09000015258789
106.19,29.3300018310547
106.2,39.5100021362305
106.21,19.4200000762939
106.22,13.3000001907349
106.23,20.8900012969971
106.24,15.1900005340576
106.25,3.01000022888184
106.26,3.74000024795532
106.269,15.2600011825562
106.279,15.9900007247925
106.289,16.7600002288818
106.299,38.8800010681152
106.309,50.4700012207031
106.319,29.9900016784668
106.329,10.2200002670288
106.339,14.6600008010864
106.349,16.9400005340576
106.359,-5
106.369,-18.6200008392334
106.379,7.91000032424927
106.389,30.1000022888184
106.399,17.4300003051758
106.409,21.0000019073486
106.419,40.8800010681152
106.429,42.4200019836426
106.439,19.5300006866455
106.449,13.6100006103516
106.459,18.0200004577637
106.463,-7.4200005531311
106.473,-12.4900007247925
106.483,0.520000040531158
106.493,14.6300010681152
106.503,4.41000032424927
106.513,-4.30000019073486
106.523,4.8600001335144
106.533,5.84000015258789
106.543,-6.82000017166138
106.553,-1.12000000476837
106.563,16.310001373291
106.573,-0.380000025033951
106.583,-25.8300018310547
106.593,-15.7500009536743
106.603,2.45000004768372
106.613,-4.83000040054321
106.621,-4.76000022888184
106.631,7.94000053405762
106.641,14.1700010299683
106.651,16.9400005340576
106.661,25.7200012207031
106.671,29.1500015258789
106.681,14.4200010299683
106.691,1.64000010490417
106.701,20.8200016021729
106.711,38.6000022888184
106.721,30.5200023651123
106.731,32.4800033569336
106.741,57.9200019836426
106.751,60.2300033569336
106.761,51.7600021362305
106.771,58.6900024414062
106.781,66.5300064086914
106.791,55.7500038146973
106.801,53.3000030517578
106.811,45.7100028991699
106.82,14.3800010681152
106.83,-11.9700002670288
106.84,-15.6400003433228
106.85,-15.3600006103516
106.86,-21.8000011444092
106.87,-30.4100017547607
106.88,-19.980001449585
106.89,-15.8900003433228
106.9,-24.2200012207031
106.91,-12.0700006484985
106.92,-4.01999998092651
106.93,-12.8400001525879
106.94,-3.57000017166138
106.95,13.3000001907349
106.96,9.13000011444092
106.97,-8.22000026702881
106.98,-2.94000005722046
106.99,-3.74000024795532
107,-8.75
107.01,-3.29000020027161
107.019,6.6100001335144
107.029,7.87000036239624
107.039,12.3500003814697
107.049,24.0800018310547
107.059,31.5300006866455
107.069,30.730001449585
107.079,23.9700012207031
107.089,22.2600002288818
107.099,19.3200016021729
107.109,23.1300010681152
107.119,30.1300010681152
107.129,11.3400001525879
107.139,1.6100001335144
107.149,6.16000032424927
107.159,-0.0700000002980232
107.169,-12.4900007247925
107.179,-10.7800006866455
107.189,-2.10000014305115
107.199,2.94000005722046
107.209,13.2300004959106
107.213,30.7600021362305
107.223,18.6900005340576
107.233,28.6300010681152
107.243,36.8200035095215
107.253,22.0100002288818
107.263,30.5500011444092
107.273,34.370002746582
107.283,0.420000016689301
107.293,-13.0900001525879
107.303,-9.38000011444092
107.313,-12.6300010681152
107.323,-6.09000015258789
107.333,12.7000007629395
107.343,15.3600006103516
107.353,15.9600009918213
107.363,23.4500007629395
107.371,7.21000051498413
107.381,-23.4100017547607
107.391,2.52000021934509
107.401,19.6300010681152
107.411,6.6100001335144
107.421,29.1900005340576
107.431,79.4100036621094
107.441,89.7700042724609
107.451,104.190002441406
107.461,133.980010986328
107.471,108.43000793457
107.481,90.6500015258789
107.491,114.270004272461
107.501,121.900009155273
107.511,116.970008850098
107.521,140.420013427734
107.531,146.510009765625
107.541,124.910003662109
107.551,96.9800033569336
107.561,72.2000045776367
107.57,31.9900016784668
107.58,9.69000053405762
107.59,14.3500003814697
107.6,17.1100006103516
107.61,11.9300003051758
107.62,16.4099998474121
107.63,0.630000054836273
107.64,-40.810001373291
107.65,-80.3600006103516
107.66,-120.890007019043
107.67,-176.330001831055
107.68,-229.210006713867
107.69,-254.310012817383
107.7,-279.540008544922
107.71,-269.290008544922
107.72,-230.230010986328
107.73,-159.280014038086
107.74,-105.350006103516
107.75,-40.6700019836426
107.76,25.9000015258789
107.769,56.4200019836426
107.779,68.0400009155273
107.789,62.3300018310547
107.799,15.8200006484985
107.809,-53.8600044250488
107.819,-117.460006713867
107.829,-143.040008544922
107.839,-158.34001159668
107.849,-140.800003051758
107.859,-83.120002746582
107.869,-0.700000047683716
107.879,84.5600051879883
107.889,167.820007324219
107.899,252.660018920898
107.909,316.920013427734
107.919,358.050018310547
107.929,389.230010986328
107.939,426.540008544922
107.949,452.690032958984
107.959,485.830017089844
107.963,344.260009765625
107.973,273.210021972656
107.983,201.530014038086
107.993,157.530014038086
108.003,102.020004272461
108.013,62.7200012207031
108.023,35.0300025939941
108.033,12.5300006866455
108.043,-11.8600006103516
108.053,-20.7200012207031
108.063,-23.8700008392334
108.073,-32.6900024414062
108.083,-46.1600036621094
108.093,-48.930004119873
108.103,-46.060001373291
108.113,-44.2700004577637
108.121,-27.7900009155273
108.131,-25.230001449585
108.141,-12.6700010299683
108.151,3.57000017166138
108.161,8.22000026702881
108.171,10.2200002670288
108.181,18.1300010681152
108.191,26.560001373291
108.201,26.5300006866455
108.211,15.8200006484985
108.221,13.8600006103516
108.231,-4.41000032424927
108.241,-25.4400005340576
108.251,-37.1700019836426
108.261,-51.3800010681152
108.271,-47.2500038146973
108.281,-41.0200004577637
108.291,-52.6700019836426
108.301,-57.7500038146973
108.311,-37.5500030517578
108.32,-50.9600028991699
108.33,-58.8300018310547
108.34,-56.2800025939941
108.35,-64.8899993896484
108.36,-70.3500061035156
108.37,-74.0200042724609
108.38,-75.8100051879883
108.39,-56.4500045776367
108.4,-28.0700016021729
108.41,15.0800008773804
108.42,53.2300033569336
108.43,85.4700012207031
108.44,84.7300033569336
108.45,72.9400024414062
108.46,65.3100051879883
108.47,27.7200012207031
108.48,-11.9000005722046
108.49,-40.6700019836426
108.5,-58.4100036621094
108.51,-67.4400024414062
108.519,-72.870002746582
108.529,-79.0300064086914
108.539,-53.2000007629395
108.549,-14.6300010681152
108.559,3.08000016212463
108.569,2.66000008583069
108.579,1.50000011920929
108.589,-22.6100006103516
108.599,-60.5500030517578
108.609,-111.93000793457
108.619,-163.450012207031
108.629,-206.600006103516
108.639,-218.640014648438
108.649,-208.630004882812
108.659,-171.640014648438
108.669,-123.76000213623
108.679,-67.2700042724609
108.689,-15.1200008392334
108.699,39.1300010681152
108.709,85.5000076293945
108.713,92.2600021362305
108.723,64.2200012207031
108.733,54.7400016784668
108.743,60.2300033569336
108.753,80.9500045776367
108.763,74.9700012207031
108.773,83.1900024414062
108.783,81.0200042724609
108.793,85.8200073242188
108.803,99.4300079345703
108.813,91.4500045776367
108.823,62.3000030517578
108.833,41.370002746582
108.843,56.9400024414062
108.853,42.7700004577637
108.863,48.5100021362305
108.871,20.6800003051758
108.881,15.1200008392334
108.891,17.1100006103516
108.901,17.6000003814697
108.911,-9.0600004196167
108.921,-57.4700012207031
108.931,-74.8600006103516
108.941,-98.4200057983398
108.951,-146.580001831055
108.961,-174.890014648438
108.971,-183.990005493164
108.981,-167.370010375977
108.991,-139.190002441406
109.001,-113.360008239746
109.011,-76.6500015258789
109.021,-26.0700016021729
109.031,3.15000009536743
109.041,20.2600002288818
109.051,40.8400001525879
109.061,69.370002746582
109.07,80.7800064086914
109.08,91.3800048828125
109.09,97.5800018310547
109.1,107.660003662109
109.11,114.620002746582
109.12,124.67000579834
109.13,120.220008850098
109.14,121.380004882812
109.15,119.42000579834
109.16,105.350006103516
109.17,72.870002746582
109.18,49.2400016784668
109.19,23.730001449585
109.2,11.8600006103516
109.21,8.96000003814697
109.22,4.26999998092651
109.23,10.6700000762939
109.24,30.5500011444092
109.25,38.4300003051758
109.26,50.0100021362305
109.269,68.5600051879883
109.279,78.120002746582
109.289,89.0000076293945
109.299,83.7200012207031
109.309,87.9200057983398
109.319,115.43000793457
109.329,144.270004272461
109.339,156.170013427734
109.349,168.070007324219
109.359,178.740005493164
109.369,170.520004272461
109.379,150.360000610352
109.389,100.730003356934
109.399,30.480001449585
109.409,-24.5700016021729
109.419,-53.3400039672852
109.429,-113.750007629395
109.439,-162.290008544922
109.449,-185.040008544922
109.459,-189.940002441406
109.463,-47.4600028991699
109.473,-5.35000038146973
109.483,33.1100006103516
109.493,63.1700019836426
109.503,41.3300018310547
109.513,1.54000008106232
109.523,-4.83000040054321
109.533,19.6000003814697
109.543,19.25
109.553,24.2900009155273
109.563,28.7000007629395
109.573,24.0100002288818
109.583,27.8900012969971
109.593,35.8400001525879
109.603,53.4800033569336
109.613,60.7600021362305
109.621,62.370002746582
109.631,82.9500045776367
109.641,139.650009155273
109.651,177.170013427734
109.661,200.790008544922
109.671,238.700012207031
109.681,304.360015869141
109.691,341.140014648438
109.701,375.930023193359
109.711,380.870025634766
109.721,363.230010986328
109.731,281.680023193359
109.741,194.420013427734
109.751,68.4900054931641
109.761,-51.8000030517578
109.771,-135.130004882812
109.781,-200.160003662109
109.791,-253.360015869141
109.801,-264.600006103516
109.811,-260.680023193359
109.82,-240.200012207031
109.83,-201.490005493164
109.84,-159.140014648438
109.85,-144.760009765625
109.86,-129.18000793457
109.87,-93.2700042724609
109.88,-70.7300033569336
109.89,-83.0900039672852
109.9,-99.0500030517578
109.91,-105.070007324219
109.92,-85.6800003051758
109.93,-67.5100021362305
109.94,-45.7800025939941
109.95,-26.0700016021729
109.96,-0.450000017881393
109.97,7.14000034332275
109.98,15.8200006484985
109.99,28.8700008392334
110,40.8800010681152
110.01,33.4200019836426
110.019,16.3800010681152
110.029,-12.0700006484985
110.039,-40.7400016784668
110.049,-52.3600006103516
110.059,-49.1000022888184
110.069,-20.7200012207031
110.079,1.54000008106232
110.089,6.72000026702881
110.099,-4.90000009536743
110.109,-0.730000019073486
110.119,-1.6800000667572
110.129,-7.45000028610229
110.139,-2.73000001907349
110.149,10.2500009536743
110.159,20.5400009155273
110.169,38.810001373291
110.179,56.6600036621094
110.189,46.8300018310547
110.199,46.0200004577637
110.209,68.25
110.213,327.77001953125
110.223,357.730010986328
110.233,354.410003662109
110.243,338.940002441406
110.253,283.010009765625
110.263,205.830017089844
110.273,89.2800064086914
110.283,14.4200010299683
110.293,-46.5500030517578
110.303,-95.5100021362305
110.313,-96.7400054931641
110.323,-95.1600036621094
110.333,-62.6100044250488
110.343,-35.2100028991699
110.353,8.99000072479248
110.363,-3.08000016212463
110.371,-27.4700012207031
110.381,-41.7900009155273
110.391,-13.7200002670288
110.401,-15.7500009536743
110.411,-62.0200042724609
110.421,-97.5800018310547
110.431,-87.1800079345703
110.441,-67.7200012207031
110.451,-56.9100036621094
110.461,-30.9700012207031
110.471,-10.8800001144409
110.481,4.13000011444092
110.491,40.6000022888184
110.501,66.2200012207031
110.511,72.7300033569336
110.521,55.8600044250488
110.531,59.2900009155273
110.541,48.8900032043457
110.551,24.2500019073486
110.561,13.3300008773804
110.57,-7.45000028610229
110.58,-34.0900001525879
110.59,-33.2800025939941
110.6,1.82000005245209
110.61,30.5200023651123
110.62,43.9900016784668
110.63,71.890007019043
110.64,90.4000015258789
110.65,97.1900024414062
110.66,84.2800064086914
110.67,64.120002746582
110.68,22.6400012969971
110.69,-4.65000009536743
110.7,6.40000009536743
110.71,-4.48000001907349
110.72,-34.7200012207031
110.73,-50.3600006103516
110.74,-49.2100028991699
110.75,-51.620002746582
110.76,-33.8400001525879
110.765,5.70000028610229
110.775,-6.51000022888184
110.785,-13.3700008392334
110.795,-7.87000036239624
110.805,-10.7400007247925
110.815,8.19000053405762
110.825,32.1300010681152
110.835,40.9800033569336
110.845,34.0900001525879
110.855,35.2100028991699
110.865,33.8400001525879
110.875,15.7800006866455
110.885,4.23000001907349
110.895,8.05000019073486
110.905,2.55000019073486
110.915,8.40000057220459
110.922,36.6100006103516
110.932,40.9800033569336
110.942,28.7000007629395
110.952,29.6100006103516
110.962,19.7700004577637
110.972,17.7800006866455
110.982,29.5000019073486
110.992,35.0300025939941
111.002,33.6300010681152
111.012,29.5400009155273
111.022,30.9700012207031
111.032,9.69000053405762
111.042,-12.2500009536743
111.052,-15.4000005722046
111.062,-21.0300006866455
111.072,-21.4200000762939
111.082,-11.2000007629395
111.092,-2.24000000953674
111.102,1.33000004291534
111.112,22.5700016021729
111.121,44.5200004577637
111.131,42.8400001525879
111.141,40.8400001525879
111.151,42.0000038146973
111.161,33.9099998474121
111.171,15.9600009918213
111.181,12.4900007247925
111.191,2.94000005722046
111.201,-15.9900007247925
111.211,-19.6000003814697
111.221,-30.0300006866455
111.231,-47.8400039672852
111.241,-36.9900016784668
111.251,-17.4600009918213
111.261,-7.38000011444092
111.271,19.6300010681152
111.281,39.7900009155273
111.291,45.1800003051758
111.301,57.430004119873
111.311,66.3600006103516
111.32,60.4800033569336
111.33,43.9600028991699
111.34,43.9600028991699
111.35,44.3400039672852
111.36,34.5100021362305
111.37,23.8700008392334
111.38,25.1300010681152
111.39,1.75000011920929
111.4,-13.0900001525879
111.41,-24.7100009918213
111.42,-50.0800018310547
111.43,-49.7700004577637
111.44,-33.7000007629395
111.45,-20.4400005340576
111.46,5.04000043869019
111.47,38.1800003051758
111.48,64.2200012207031
111.49,73.390007019043
111.5,84.2800064086914
111.51,90.6100006103516
111.514,41.0200004577637
111.524,36.9900016784668
111.534,28.4200019836426
111.544,32.9700012207031
111.554,24.8800010681152
111.564,-4.83000040054321
111.574,-28.2800006866455
111.584,-45.0100021362305
111.594,-68.0699996948242
111.604,-67.6900024414062
111.614,-60.0900039672852
111.624,-62.2300033569336
111.634,-45.2200012207031
111.644,-24.8800010681152
111.654,-40.3900032043457
111.664,-36.9600028991699
111.672,-35.0700035095215
111.682,-54.0700035095215
111.692,-63.9800033569336
111.702,-45.3200035095215
111.712,-28.8700008392334
111.722,8.61000061035156
111.732,38.810001373291
111.742,52.0400009155273
111.752,62.6100044250488
111.762,74.0200042724609
111.772,75.6700057983398
111.782,59.2900009155273
111.792,46.2000007629395
111.802,36.8900032043457
111.812,36.4000015258789
111.822,37.1300010681152
111.832,35.1700019836426
111.842,24.0800018310547
111.852,15.0500011444092
111.862,12.0400009155273
111.871,1.78000009059906
111.881,-13.8200006484985
111.891,-25.4100017547607
111.901,-36.2900009155273
111.911,-46.2700004577637
111.921,-47.3500022888184
111.931,-57.2200012207031
111.941,-69.120002746582
111.951,-73.8500061035156
111.961,-59.6000022888184
111.971,-48.3000030517578
111.981,-39.4800033569336
111.991,-17.5
112.001,2.52000021934509
112.011,5.18000030517578
112.021,17.2900009155273
112.031,27.5100021362305
112.041,21.0300006866455
112.051,28.3800010681152
112.061,23.2700004577637
112.07,13.4700002670288
112.08,16.480001449585
112.09,21.4900016784668
112.1,22.5700016021729
112.11,26.8400020599365
112.12,34.1599998474121
112.13,34.2600021362305
112.14,41.8200035095215
112.15,47.9800033569336
112.16,31.8800010681152
112.17,20.3700008392334
112.18,27.8900012969971
112.19,25.1300010681152
112.2,25.5100021362305
112.21,34.0200004577637
112.22,40.9100036621094
112.23,57.3300018310547
112.24,70.5900039672852
112.25,66.1100006103516
112.26,39.7600021362305
112.265,-120.610008239746
112.275,-138.560012817383
112.285,-135.520004272461
112.295,-123.830009460449
112.305,-110.600006103516
112.315,-81.370002746582
112.325,-45.1800003051758
112.335,-31.810001373291
112.345,-30.2000007629395
112.355,-17.3900012969971
112.365,-3.99000024795532
112.375,-16.480001449585
112.385,-24.7400016784668
112.395,-15.4000005722046
112.405,-23.2400016784668
112.415,-27.3000011444092
112.422,-21.8400001525879
112.432,-25.230001449585
112.442,-23.6600017547607
112.452,-4.83000040054321
112.462,6.93000030517578
112.472,8.64000034332275
112.482,39.2000007629395
112.492,76.890007019043
112.502,93.7600021362305
112.512,105.310005187988
112.522,152.420013427734
112.532,186.370010375977
112.542,180.880004882812
112.552,180.390014648438
112.562,180.210006713867
112.572,175.030014038086
112.582,146.160003662109
112.592,112.42000579834
112.602,81.1300048828125
112.612,50.430004119873
112.621,16.5900001525879
112.631,-22.0800018310547
112.641,-49.310001373291
112.651,-62.3300018310547
112.661,-38.1100006103516
112.671,-25.1300010681152
112.681,-44.1700019836426
112.691,-56.7700042724609
112.701,-59.6700019836426
112.711,-51.4100036621094
112.721,-39.3000030517578
112.731,-15.6400003433228
112.741,15.5400009155273
112.751,33.0400009155273
112.761,47.4600028991699
112.771,62.6500015258789
112.781,79.6900024414062
112.791,82.9500045776367
112.801,78.0500030517578
112.811,67.6500015258789
112.82,29.4300022125244
112.83,-3.04000020027161
112.84,-1.89000010490417
112.85,-1.54000008106232
112.86,0.100000001490116
112.87,13.3700008392334
112.88,38.3900032043457
112.89,44.6600036621094
112.9,46.0200004577637
112.91,50.0500030517578
112.92,63.6300048828125
112.93,68.8800048828125
112.94,46.6900024414062
112.95,45.4600028991699
112.96,57.0500030517578
112.97,43.8500022888184
112.98,22.4300003051758
112.99,21.3800010681152
113,33.9099998474121
113.01,27.4000015258789
113.014,35.2400016784668
113.024,55.370002746582
113.034,80.7100067138672
113.044,88.4400024414062
113.054,92.9200057983398
113.064,101.810005187988
113.074,118.160003662109
113.084,117.740005493164
113.094,99.5400009155273
113.104,104.650001525879
113.114,119.770004272461
113.124,117.110008239746
113.134,118.610008239746
113.144,119.070007324219
113.154,106.820007324219
113.164,85.6100006103516
113.172,58.3800010681152
113.182,16.6900005340576
113.192,-14.6300010681152
113.202,-54.1400032043457
113.212,-102.480003356934
113.222,-125.510009765625
113.232,-146.400009155273
113.242,-143.389999389648
113.252,-132.580001831055
113.262,-98.7700042724609
113.272,-63.6600036621094
113.282,-21.0300006866455
113.292,30.8300018310547
113.302,74.4400024414062
113.312,113.080001831055
113.322,137.93000793457
113.332,142.800003051758
113.342,155.820007324219
113.352,159.980010986328
113.362,165.270004272461
113.371,166.980010986328
113.381,161.870010375977
113.391,162.150009155273
113.401,169.640014648438
113.411,183.780014038086
113.421,170.060012817383
113.431,143.360000610352
113.441,126.17000579834
113.451,132.190002441406
113.461,127.220008850098
113.471,110.42000579834
113.481,100.480003356934
113.491,100.870002746582
113.501,106.190002441406
113.511,95.9000015258789
113.521,82.6300048828125
113.531,70.9400024414062
113.541,81.8600006103516
113.551,77.2800064086914
113.561,53.7200012207031
113.57,31.7100009918213
113.58,18.4100017547607
113.59,12.2500009536743
113.6,-0.980000019073486
113.61,-12.6300010681152
113.62,-24.0100002288818
113.63,-2.76000022888184
113.64,7.87000036239624
113.65,2.45000004768372
113.66,9.97000026702881
113.67,26.1400012969971
113.68,52.9900016784668
113.69,57.1500015258789
113.7,38.9900016784668
113.71,32.1300010681152
113.72,19.6300010681152
113.73,20.2600002288818
113.74,1.26000010967255
113.75,-36.8500022888184
113.76,-60.1300010681152
113.765,-67.2700042724609
113.775,-51.2700042724609
113.785,-24.2200012207031
113.795,-19
113.805,-28.980001449585
113.815,-14.6600008010864
113.825,11.8300008773804
113.835,32.3400001525879
113.845,32.3400001525879
113.855,8.71000003814697
113.865,-5.53000020980835
113.875,-13.6500005722046
113.885,-34.6800003051758
113.895,-75.6700057983398
113.905,-134.889999389648
113.915,-196.560012817383
113.922,-226.730010986328
113.932,-223.820007324219
113.942,-197.610015869141
113.952,-170.940002441406
113.962,-134.220001220703
113.972,-86.0600051879883
113.982,-27.230001449585
113.992,35.3800010681152
114.002,84.2400054931641
114.012,106.120002746582
114.022,125.090003967285
114.032,151.620010375977
114.042,169.960006713867
114.052,202.370010375977
114.062,216.330017089844
114.072,200.020004272461
114.082,197.780014038086
114.092,204.470016479492
114.102,204.080017089844
114.112,204.540008544922
114.121,177.380004882812
114.131,150.080001831055
114.141,140.240005493164
114.151,135.450012207031
114.161,142.800003051758
114.171,136.150009155273
114.181,120.92000579834
114.191,117.950004577637
114.201,112.140007019043
114.211,105.940002441406
114.221,93.4100036621094
114.231,68.7000045776367
114.241,40.2500038146973
114.251,4.65000009536743
114.261,-21.8400001525879
114.271,-57.2900009155273
114.281,-77.0300064086914
114.291,-78.7800064086914
114.301,-82.5600051879883
114.311,-82.7400054931641
114.32,-72.4500045776367
114.33,-60.6900024414062
114.34,-36.75
114.35,-20.5400009155273
114.36,-14.8000011444092
114.37,-18.5100002288818
114.38,-21.730001449585
114.39,-27.8600006103516
114.4,-29.7800006866455
114.41,-30.6200008392334
114.42,-31.3600006103516
114.43,-36.1900024414062
114.44,-34.6500015258789
114.45,-31.2200012207031
114.46,-0.0300000011920929
114.47,25.4100017547607
114.48,34.3000030517578
114.49,20.4400005340576
114.5,15.4700002670288
114.51,25.5500011444092
114.514,-3.57000017166138
114.524,-3.3600001335144
114.534,-8.57000064849854
114.544,-16.9000015258789
114.554,-15.2600011825562
114.564,-29.7800006866455
114.574,-32.4099998474121
114.584,-84.6300048828125
114.594,-116.230003356934
114.604,-117.740005493164
114.614,-141.850006103516
114.624,-143.18000793457
114.634,-127.190002441406
114.644,-105.770004272461
114.654,-42.870002746582
114.664,27.6800022125244
114.672,102.060005187988
114.682,166.280014038086
114.692,197.010009765625
114.702,228.230010986328
114.712,264.490020751953
114.722,284.410003662109
114.732,256.860015869141
114.742,211.920013427734
114.752,138.810012817383
114.762,74.6500015258789
114.772,20.8900012969971
114.782,-32.7600021362305
114.792,-79.3400039672852
114.802,-101.320007324219
114.812,-99.3300018310547
114.822,-87.3200073242188
114.832,-75.9100036621094
114.842,-52.1500015258789
114.852,-20.8900012969971
114.862,19.0700016021729
114.871,63.9400024414062
114.881,94.6700057983398
114.891,106.640007019043
114.901,104.26000213623
114.911,84.7700042724609
114.921,57.8900032043457
114.931,37.6600036621094
114.941,8.71000003814697
114.951,-41.7200012207031
114.961,-91.1700057983398
114.971,-145.630004882812
114.981,-184.030014038086
114.991,-178.390014648438
115.001,-180.490005493164
115.011,-194.950012207031
115.021,-200.09001159668
115.031,-191.34001159668
115.041,-146.190002441406
115.051,-73.2900009155273
115.061,-4.93000030517578
115.069,56.870002746582
115.079,104.400001525879
115.089,136.18000793457
115.099,174.300003051758
115.109,209.09001159668
115.119,229.18000793457
115.129,233.900009155273
115.139,235.34001159668
115.149,239.43000793457
115.159,248.950012207031
115.169,264.460021972656
115.179,269.110015869141
115.189,263.970001220703
115.199,260.850006103516
115.209,250.18000793457
115.219,225.640014648438
115.229,168.490005493164
115.239,125.68000793457
115.249,80.8100051879883
115.259,36.9900016784668
115.263,73.8100051879883
115.273,92.7100067138672
115.283,117.980003356934
115.293,138.420013427734
115.303,152.210006713867
115.313,148.050003051758
115.323,117.600006103516
115.333,67.6900024414062
115.343,4.97000026702881
115.353,-43.6400032043457
115.363,-85.9600067138672
115.373,-123.440002441406
115.383,-141.360000610352
115.393,-151.09001159668
115.403,-135.59001159668
115.413,-105.140007019043
115.422,-66.8800048828125
115.432,-23.8300018310547
115.442,11.0900001525879
115.452,27.1600017547607
115.462,36.9200019836426
115.472,26.0700016021729
115.482,22.0100002288818
115.492,33.8400001525879
115.502,28.560001373291
115.512,23.730001449585
115.522,22.8200016021729
115.532,21.7700004577637
115.542,35
115.552,57.2600021362305
115.562,59.9200019836426
115.572,60.2300033569336
115.582,59.7400016784668
115.592,63.1700019836426
115.602,80.390007019043
115.612,80.2200012207031
115.621,57.4700012207031
115.631,19.7700004577637
115.641,-18.5500011444092
115.651,-34.6800003051758
115.661,-45.3600006103516
115.671,-63.2400016784668
115.681,-92.6800079345703
115.691,-95.9000015258789
115.701,-71.5699996948242
115.711,-41.8600006103516
115.721,-2.69000005722046
115.731,29.1500015258789
115.741,55.3300018310547
115.751,86.4800033569336
115.761,113.540008544922
115.771,141.360000610352
115.781,152.390014648438
115.791,131.950012207031
115.801,115.640007019043
115.811,103.210006713867
115.819,82.7400054931641
115.829,65.3800048828125
115.839,33.5300025939941
115.849,8.82000064849854
115.859,0.630000054836273
115.869,-14.5600004196167
115.879,-26.5300006866455
115.889,-51.1000022888184
115.899,-67.1300048828125
115.909,-57.7800025939941
115.919,-47.0700035095215
115.929,-27.0500011444092
115.939,-6.54000043869019
115.949,14.7700004577637
115.959,51.8000030517578
115.969,84.1700057983398
115.979,99.7500076293945
115.989,101.67000579834
115.999,78.0800018310547
116.009,58.9400024414062
116.013,-9.41000080108643
116.023,0.100000001490116
116.033,10.9200000762939
116.043,30.2700023651123
116.053,27.5800018310547
116.063,25.5100021362305
116.073,36.5400009155273
116.083,41.9300003051758
116.093,42.4500007629395
116.103,29.1900005340576
116.113,23.060001373291
116.123,30.6200008392334
116.133,37.6600036621094
116.143,39.5500030517578
116.153,29.5000019073486
116.163,34.4000015258789
116.172,58.5200042724609
116.182,81.0600051879883
116.192,101.18000793457
116.202,101.040008544922
116.212,92.6800079345703
116.222,93.5900039672852
116.232,83.6800003051758
116.242,49.0300025939941
116.252,-0.700000047683716
116.262,-21.2800006866455
116.272,-34.9300003051758
116.282,-45.7800025939941
116.292,-58.2400016784668
116.302,-62.9600028991699
116.312,-56.5200042724609
116.322,-41.4700012207031
116.332,-18.9700012207031
116.342,-26.5300006866455
116.352,-31.8800010681152
116.362,-20.8900012969971
116.371,-12.3200006484985
116.381,-12.1100006103516
116.391,-19.1100006103516
116.401,-19
116.411,-8.43000030517578
116.421,13.0900001525879
116.431,23.1700019836426
116.441,21.9100017547607
116.451,29.0500011444092
116.461,45.0100021362305
116.471,44.9400024414062
116.481,36.3300018310547
116.491,27.9300022125244
116.501,19.0400009155273
116.511,11.8600006103516
116.521,-1.26000010967255
116.531,-19.8800010681152
116.541,-23.5200004577637
116.551,-12.8100004196167
116.561,-12.5300006866455
116.569,-24.8800010681152
116.579,-31.6700019836426
116.589,-16.3400001525879
116.599,-5.39000034332275
116.609,-5.95000028610229
116.619,-10.8500003814697
116.629,-2.69000005722046
116.639,25.1300010681152
116.649,26.3500003814697
116.659,10.2900009155273
116.669,2.94000005722046
116.679,6.12000036239624
116.689,-9.55000019073486
116.699,-34.6100006103516
116.709,-69.5100021362305
116.719,-91.9100036621094
116.729,-87.7100067138672
116.739,-77.1000061035156
116.749,-79.8300018310547
116.759,-61.180004119873
116.763,-13.0200004577637
116.773,-1.29000008106232
116.783,-8.92000007629395
116.793,-2.52000021934509
116.803,-0.310000002384186
116.813,-16.4099998474121
116.823,-40.4900016784668
116.833,-59.6700019836426
116.843,-55.7500038146973
116.853,-39.6500015258789
116.863,-56.9400024414062
116.873,-57.2900009155273
116.883,-42.9100036621094
116.893,-28.4200019836426
116.903,-34.8600006103516
116.913,-33.9800033569336
116.922,-19.0700016021729
116.932,-3.64000010490417
116.942,1.89000010490417
116.952,6.02000045776367
116.962,8.99000072479248
116.972,6.33000040054321
116.982,-23.6900005340576
116.992,-53.2000007629395
117.002,-70.1000061035156
117.012,-85.4700012207031
117.022,-107.690002441406
117.032,-115.18000793457
117.042,-116.020004272461
117.052,-112.490005493164
117.062,-102.130004882812
117.072,-94.5300064086914
117.082,-87.3600006103516
117.092,-81.7900009155273
117.102,-79.8000030517578
117.112,-71.890007019043
117.121,-49.7700004577637
117.131,-40.3200035095215
117.141,-20.8900012969971
117.151,-18.060001373291
117.161,-22.3600006103516
117.171,-23.060001373291
117.181,-29.0100021362305
117.191,-39.5800018310547
117.201,-47.9800033569336
117.211,-50.8900032043457
117.221,-52.1100006103516
117.231,-59.8500022888184
117.241,-71.2600021362305
117.251,-68.6000061035156
117.261,-59.5700035095215
117.271,-38.810001373291
117.281,-22.1500015258789
117.291,-20.7900009155273
117.301,-18.0900001525879
117.311,-20.6100006103516
117.319,-25.5800018310547
117.329,-21.980001449585
117.339,-2.59000015258789
117.349,27.3300018310547
117.359,65.7300033569336
117.369,103.42000579834
117.379,158.790008544922
117.389,210.210006713867
117.399,243.810012817383
117.409,252.490005493164
117.419,226.550018310547
117.429,196.980010986328
117.439,165.790008544922
117.449,118.440002441406
117.459,50.3600006103516
117.469,-2.20000004768372
117.479,-37.5900001525879
117.489,-69.6100006103516
117.499,-111.050003051758
117.509,-157.530014038086
117.513,-180.630004882812
117.523,-157.570007324219
117.533,-114.240005493164
117.543,-60.930004119873
117.553,-4.01999998092651
117.563,23.4100017547607
117.573,51.5200042724609
117.583,71.0800018310547
117.593,60.0200042724609
117.603,43.8200035095215
117.613,5.53000020980835
117.623,-45.9900016784668
117.633,-76.7900009155273
117.643,-97.0900039672852
117.653,-123.93000793457
117.663,-136.530014038086
117.672,-103.250007629395
117.682,-44.060001373291
117.692,28.3500022888184
117.702,105.980003356934
117.712,167.020004272461
117.722,208.140014648438
117.732,226.310012817383
117.742,224.730010986328
117.752,182.730010986328
117.762,125.300003051758
117.772,64.9200057983398
117.782,-0.240000009536743
117.792,-62.6100044250488
117.802,-113.990005493164
117.812,-155.540008544922
117.822,-170.830001831055
117.832,-154.070007324219
117.842,-141.889999389648
117.852,-126.840003967285
117.862,-102.440002441406
117.871,-88.2700042724609
117.881,-67.4400024414062
117.891,-49.310001373291
117.901,-49.4500007629395
117.911,-58.310001373291
117.921,-56.2100028991699
117.931,-53.8300018310547
117.941,-37.5200004577637
117.951,-10.7800006866455
117.961,17.7100009918213
117.971,36.0100021362305
117.981,74.3400039672852
117.991,102.130004882812
118.001,130.440002441406
118.011,116.020004272461
118.021,59.4600028991699
118.031,32.0900001525879
118.041,-11.8600006103516
118.051,-48.8600006103516
118.061,-74.7200012207031
118.069,-109.76000213623
118.079,-150.880004882812
118.089,-173.320007324219
118.099,-176.890014648438
118.109,-168.030014038086
118.119,-126.700004577637
118.129,-67.6900024414062
118.139,8.1200008392334
118.149,61.6300010681152
118.159,121.410003662109
118.169,159.630004882812
118.179,173.110000610352
118.189,171.43000793457
118.199,146.120010375977
118.209,106.120002746582
118.219,94.3600082397461
118.229,74.370002746582
118.239,17.2900009155273
118.249,-32.0900001525879
118.259,-50.7800025939941
118.263,-36.3300018310547
118.273,-29.3300018310547
118.283,-39.1300010681152
118.293,-59.430004119873
118.303,-61.3500022888184
118.313,-49.1000022888184
118.323,-25.4400005340576
118.333,16.2000007629395
118.343,62.3000030517578
118.353,126.42000579834
118.363,224.84001159668
118.373,266.070007324219
118.383,276.850006103516
118.393,261.590026855469
118.403,200.270004272461
118.413,110.350006103516
118.422,-9.34000015258789
118.432,-99.3300018310547
118.442,-177.310012817383
118.452,-230.260009765625
118.462,-267.360015869141
118.472,-295.260009765625
118.482,-319.790008544922
118.492,-324.590026855469
118.502,-299.950012207031
118.512,-278.279998779297
118.522,-257.980010986328
118.532,-230.300018310547
118.542,-200.580017089844
118.552,-178.710006713867
118.562,-132.889999389648
118.572,-108.220008850098
118.582,-86.7300033569336
118.592,-47.6000022888184
118.602,-1.6100001335144
118.612,35.4500007629395
118.621,63.560001373291
118.631,99.890007019043
118.641,107.970008850098
118.651,105.17000579834
118.661,90.2600021362305
118.671,33.7400016784668
118.681,-29.2200012207031
118.691,-61.2800025939941
118.701,-86.6900024414062
118.711,-94.0400009155273
118.721,-71.2900009155273
118.731,-57.3300018310547
118.741,-46.370002746582
118.751,-14.1700010299683
118.761,5.53000020980835
118.771,26.7700004577637
118.781,46.8300018310547
118.791,34.5400009155273
118.801,19.25
118.811,33.2800025939941
118.819,40
118.829,29.2900009155273
118.839,8.19000053405762
118.849,-8.82000064849854
118.859,-2.90000009536743
118.869,1.08000004291534
118.879,-9.6200008392334
118.889,-31.5700016021729
118.899,-52.2200012207031
118.909,-69.7900009155273
118.919,-77.7300033569336
118.929,-83.7900009155273
118.939,-104.720001220703
118.949,-126.840003967285
118.959,-127.220008850098
118.969,-107.240005493164
118.979,-85.8500061035156
118.989,-81.2700042724609
118.999,-76.6800003051758
119.009,-55.680004119873
119.013,27.5100021362305
119.023,55.2300033569336
119.033,81.6900024414062
119.043,81.370002746582
119.053,67.4400024414062
119.063,52.5000038146973
119.073,35.4200019836426
119.083,12.2800006866455
119.093,-13.5800008773804
119.103,-28.980001449585
119.113,-29.8500022888184
119.123,-23.060001373291
119.133,-15.7100009918213
119.143,-28.9100017547607
119.153,-49.4200019836426
119.163,-47.3500022888184
119.172,-37.1700019836426
119.182,-5.14000034332275
119.192,50.0500030517578
119.202,71.8500061035156
119.212,115.500007629395
119.222,160.540008544922
119.232,129.18000793457
119.242,74.4800033569336
119.252,34.1900024414062
119.262,37.9700012207031
119.272,28.0300006866455
119.282,-16.9700012207031
119.292,-79.7600021362305
119.302,-90.8600006103516
119.312,-37.3800010681152
119.322,-44.0300025939941
119.332,-39.1300010681152
119.342,18.5100002288818
119.352,58.2000045776367
119.362,106.150001525879
119.37,132.510009765625
119.38,134.43000793457
119.39,118.51000213623
119.4,108.500007629395
119.41,86.2700042724609
119.42,57.8900032043457
119.43,16.7600002288818
119.44,13.4700002670288
119.45,22.1200008392334
119.46,-16.0300006866455
119.47,-39.6900024414062
119.48,-1.26000010967255
119.49,-6.37000036239624
119.5,-8.28999996185303
119.51,-3.32000017166138
119.52,-31.3600006103516
119.53,-55.6100044250488
119.54,-68.5600051879883
119.55,-44.1300010681152
119.56,11.5500001907349
119.569,57.8500022888184
119.579,73.8100051879883
119.589,96.8100051879883
119.599,127.710006713867
119.609,165.93000793457
119.619,168.980010986328
119.629,140.100006103516
119.639,110.530006408691
119.649,105.380004882812
119.659,80.2200012207031
119.669,26.3900012969971
119.679,-28.1000003814697
119.689,-104.370002746582
119.699,-157.850006103516
119.709,-172.720001220703
119.719,-218.290008544922
119.729,-266.840026855469
119.739,-266.590026855469
119.749,-218.570007324219
119.759,-166.910003662109
119.763,182.000015258789
119.773,159.040008544922
119.783,143.530014038086
119.793,124.950004577637
119.803,46.2700004577637
119.813,-41.7900009155273
119.823,-89.8800048828125
119.833,-114.590003967285
119.843,-117.770004272461
119.853,-100.200004577637
119.863,-51.310001373291
119.873,-19.0400009155273
119.883,36.2900009155273
119.893,59.810001373291
119.903,67.1300048828125
119.913,79.6900024414062
119.922,85.6100006103516
119.932,37.2000007629395
119.942,0.840000033378601
119.952,-33.9800033569336
119.962,-99.7800064086914
119.972,-140.660003662109
119.982,-169.610000610352
119.992,-194.630004882812
120.002,-199.290008544922
120.012,-188.540008544922
120.022,-188.93000793457
120.032,-126.280006408691
120.042,-15.9600009918213
120.052,54.4600028991699
120.062,102.790008544922
120.072,102.230003356934
120.082,93.870002746582
120.092,91.8000030517578
120.102,3.22000026702881
120.112,-103.630004882812
120.12,-166.280014038086
120.13,-204.820007324219
120.14,-252.030014038086
120.15,-247.240005493164
120.16,-190.080001831055
120.17,-223.510009765625
120.18,-234.010009765625
120.19,-167.370010375977
120.2,-61.3500022888184
120.21,55.2300033569336
120.22,183.080001831055
120.23,208.390014648438
120.24,249.300018310547
120.25,310.060028076172
120.26,259.309997558594
120.27,190.120010375977
120.28,76.2300033569336
120.29,-25.3700008392334
120.3,-87.9900054931641
120.31,-131.139999389648
120.319,-204.610015869141
120.329,-262.430023193359
120.339,-288.710021972656
120.349,-250.670013427734
120.359,-171.460006713867
120.369,-151.620010375977
120.379,-131.880004882812
120.389,-108.880004882812
120.399,-76.1600036621094
120.409,-25.480001449585
120.419,15.8900003433228
120.429,41.0900001525879
120.439,47.5300025939941
120.449,59.0100021362305
120.459,78.2200012207031
120.469,87.5300064086914
120.479,70.0699996948242
120.489,39.7900009155273
120.499,7.00000047683716
120.509,-24.9500007629395
120.513,-67.620002746582
120.523,-11.0200004577637
120.533,62.2300033569336
120.543,181.260009765625
120.553,262.360015869141
120.563,310.450012207031
120.573,327.77001953125
120.583,334.910003662109
120.593,331.660003662109
120.603,295.010009765625
120.613,243.040008544922
120.623,192.880004882812
120.633,152.880004882812
120.643,114.520004272461
120.653,59.5700035095215
120.663,31.3900012969971
120.671,9.0600004196167
120.681,-22.0800018310547
120.691,-43.6100006103516
120.701,-44.620002746582
120.711,-60.2000045776367
120.721,-91.2100067138672
120.731,-113.470008850098
120.741,-133.070007324219
120.751,-153.020004272461
120.761,-173.560012817383
120.771,-176.290008544922
120.781,-175.070007324219
120.791,-178.290008544922
120.801,-170.620010375977
120.811,-154.490005493164
120.821,-125.960006713867
120.831,-118.820007324219
120.841,-131.490005493164
120.851,-100.130004882812
120.861,-89.1100006103516
120.87,-61.180004119873
120.88,-55.5400009155273
120.89,-40.1800003051758
120.9,-47.810001373291
120.91,-57.5400009155273
120.92,-55.7200012207031
120.93,-54.560001373291
120.94,-78.890007019043
120.95,-98.2800064086914
120.96,-109.970008850098
120.97,-141.360000610352
120.98,-173.280014038086
120.99,-178.220001220703
121,-180.320007324219
121.01,-141.330001831055
121.02,-107.520004272461
121.03,-92.0500030517578
121.04,-34.9600028991699
121.05,3.92000007629395
121.06,28.0000019073486
121.065,7.28000020980835
121.075,-24.9200019836426
121.085,-46.2300033569336
121.095,-41.9600028991699
121.105,-7.1700005531311
121.115,44.3400039672852
121.125,81.7600021362305
121.135,122.570007324219
121.145,155.050003051758
121.155,195.470016479492
121.165,192.990005493164
121.175,163.410003662109
121.185,143.740005493164
121.195,112.140007019043
121.205,59.6000022888184
121.215,25.480001449585
121.222,-21.2400016784668
121.232,-80.8800048828125
121.242,-141.710006713867
121.252,-158.93000793457
121.262,-157.530014038086
121.272,-154.660003662109
121.282,-114.130004882812
121.292,-55.2300033569336
121.302,-12.6700010299683
121.312,12.9500007629395
121.322,49.1700019836426
121.332,59.9900016784668
121.342,61.810001373291
121.352,96.4900054931641
121.362,105.590003967285
121.372,151.130004882812
121.382,174.020004272461
121.392,179.790008544922
121.402,202.300003051758
121.412,200.790008544922
121.421,159.110000610352
121.431,101.460006713867
121.441,38.0100021362305
121.451,-22.5700016021729
121.461,-95.2000045776367
121.471,-155.150009155273
121.481,-180.810012817383
121.491,-220.010009765625
121.501,-271
121.511,-284.620025634766
121.521,-270.550018310547
121.531,-243.420013427734
121.541,-182.240005493164
121.551,-129.290008544922
121.561,-102.93000793457
121.571,-70.1000061035156
121.581,-20.1200008392334
121.591,11.8300008773804
121.601,7.5600004196167
121.611,-22.2600002288818
121.62,-42.9800033569336
121.63,-49.310001373291
121.64,-52.810001373291
121.65,-52.9500007629395
121.66,-59.1500015258789
121.67,-36.9600028991699
121.68,14.6300010681152
121.69,79.2400054931641
121.7,124.910003662109
121.71,119.560005187988
121.72,131.110000610352
121.73,171.250015258789
121.74,179.270004272461
121.75,161.030014038086
121.76,137.440002441406
121.77,109.93000793457
121.78,98.0700073242188
121.79,104.120002746582
121.8,116.060005187988
121.81,101.500007629395
121.814,-87.5700073242188
121.824,-132.120010375977
121.834,-149.760009765625
121.844,-160.120010375977
121.854,-173.000015258789
121.864,-191.480010986328
121.874,-204.150009155273
121.884,-207.410003662109
121.894,-171.810012817383
121.904,-157.150009155273
121.914,-162.290008544922
121.924,-151.580001831055
121.934,-132.09001159668
121.944,-98.0300064086914
121.954,-62.9600028991699
121.964,-13.2600002288818
121.972,23.0300006866455
121.982,68.0699996948242
121.992,127.540008544922
122.002,168.730010986328
122.012,169.080001831055
122.022,139.300003051758
122.032,106.610008239746
122.042,50.9900016784668
122.052,1.29000008106232
122.062,-21.6300010681152
122.072,-18.5100002288818
122.082,-20.0900001525879
122.092,-11.0200004577637
122.102,23.1300010681152
122.112,31.0100021362305
122.122,21.310001373291
122.132,48.0500030517578
122.142,78.8500061035156
122.152,87.4300079345703
122.162,89.4900054931641
122.171,95.2700042724609
122.181,86.3400039672852
122.191,77.5600051879883
122.201,62.0900039672852
122.211,13.0900001525879
122.221,-38.25
122.231,-80.8100051879883
122.241,-110.280006408691
122.251,-122.740005493164
122.261,-122.220008850098
122.271,-104.26000213623
122.281,-80.8100051879883
122.291,-78.2600021362305
122.301,-74.3400039672852
122.311,-29.4000015258789
122.321,5.49000024795532
122.331,18.4400005340576
122.341,50.0100021362305
122.351,49.0300025939941
122.361,28.5200004577637
122.369,50.7500038146973
122.379,53.7600021362305
122.389,21.4200000762939
122.399,14.5600004196167
122.409,21.6300010681152
122.419,5.28000020980835
122.429,-5.74000024795532
122.439,6.6100001335144
122.449,1.22000002861023
122.459,-12.9100008010864
122.469,7.77000045776367
122.479,30.8000011444092
122.489,27.4400005340576
122.499,36.2200012207031
122.509,50.2900009155273
122.519,42.2100028991699
122.529,28.8700008392334
122.539,22.7100009918213
122.549,4.41000032424927
122.559,-2.87000012397766
122.563,-22.3600006103516
122.573,-20.1900005340576
122.583,-36.4000015258789
122.593,-6.05000019073486
122.603,30.8700008392334
122.613,49.2800025939941
122.623,46.2300033569336
122.633,47.6700019836426
122.643,42.0300025939941
122.653,33.2800025939941
122.663,29.7100009918213
122.673,-12.7000007629395
122.683,-50.7800025939941
122.693,-59.6700019836426
122.703,-69.3000030517578
122.713,-88.9300079345703
122.722,-82.8100051879883
122.732,-51.4500007629395
122.742,-35.2100028991699
122.752,-45.9900016784668
122.762,-59.3900032043457
122.772,-66.4300003051758
122.782,-72.5500030517578
122.792,-114.970008850098
122.802,-152.770004272461
122.812,-143.5
122.822,-118.050003051758
122.832,-67.2000045776367
122.842,-13.3700008392334
122.852,32.2000007629395
122.862,66.0100021362305
122.872,93.3400039672852
122.882,97.2300033569336
122.892,88.1600036621094
122.902,62.4700012207031
122.912,27.8600006103516
122.921,1.4300000667572
122.931,-8.15000057220459
122.941,-4.16000032424927
122.951,27.6800022125244
122.961,94.2900009155273
122.971,152.950012207031
122.981,212.690017700195
122.991,272.300018310547
123.001,330.190002441406
123.011,372.150024414062
123.021,406.560028076172
123.031,416.150024414062
123.041,408.200012207031
123.051,392.350006103516
123.061,365.330017089844
123.071,325.250030517578
123.081,278.740020751953
123.091,224.070007324219
123.101,148.050003051758
123.111,77.7700042724609
123.119,13.4700002670288
123.129,-54.9500007629395
123.139,-113.500007629395
123.149,-153.720001220703
123.159,-171.360000610352
123.169,-175.910003662109
123.179,-160.400009155273
123.189,-139.820007324219
123.199,-103.000007629395
123.209,-57.8900032043457
123.219,-15.9600009918213
123.229,13.6500005722046
123.239,50.0800018310547
123.249,77.3800048828125
123.259,89.8800048828125
123.269,94.9500045776367
123.279,108.600006103516
123.289,131.770004272461
123.299,155.470001220703
123.309,168.84001159668
123.313,274.120025634766
123.323,264.77001953125
123.333,259.77001953125
123.343,250.040008544922
123.353,200.830017089844
123.363,158.720001220703
123.373,120.150009155273
123.383,89.6000061035156
123.393,63.2100028991699
123.403,9.03000068664551
123.413,-22.2600002288818
123.423,-34.8200035095215
123.433,-52.0100021362305
123.443,-66.6399993896484
123.453,-80.7800064086914
123.463,-83.8200073242188
123.472,-61.3900032043457
123.482,-30.9000015258789
123.492,-19.4200000762939
123.502,-6.75000047683716
123.512,18.7600002288818
123.522,38.1100006103516
123.532,46.6500015258789
123.542,36.4700012207031
123.552,26.8800010681152
123.562,26.6700019836426
123.572,44.7600021362305
123.582,41.5800018310547
123.592,28.0300006866455
123.602,32.620002746582
123.612,38.0100021362305
123.622,39.3000030517578
123.632,13.4700002670288
123.642,-27.7500019073486
123.652,-59.5300025939941
123.662,-84.3800048828125
123.671,-86.6600036621094
123.681,-107.030006408691
123.691,-131.810012817383
123.701,-116.020004272461
123.711,-97.9300079345703
123.721,-70.7700042724609
123.731,-74.3000030517578
123.741,-93.2700042724609
123.751,-115.320007324219
123.761,-143.040008544922
123.771,-159.770004272461
123.781,-175.310012817383
123.791,-187.600006103516
123.801,-184.170013427734
123.811,-160.440002441406
123.821,-113.080001831055
123.831,-53.9700012207031
123.841,-10.5000009536743
123.851,36.3600006103516
123.861,76.6500015258789
123.869,96.0400009155273
123.879,111.650001525879
123.889,124.600006103516
123.899,119.700004577637
123.909,110.560005187988
123.919,99.8200073242188
123.929,74.2300033569336
123.939,65.870002746582
123.949,56.2400016784668
123.959,34.4000015258789
123.969,22.2600002288818
123.979,10.4300003051758
123.989,-2.59000015258789
123.999,-4.44000005722046
124.009,-9.97000026702881
124.019,-17.3900012969971
124.029,-18.4400005340576
124.039,-11.5800008773804
124.049,6.96000051498413
124.059,31.9900016784668
124.063,61.8400039672852
124.073,55.0500030517578
124.083,27.1600017547607
124.093,4.0600004196167
124.103,-16.8000011444092
124.113,-29.9200019836426
124.123,-42.8000030517578
124.133,-31.5700016021729
124.143,-20.2600002288818
124.153,-4.23000001907349
124.163,11.0900001525879
124.173,28.6300010681152
124.183,56.6300010681152
124.193,71.1900024414062
124.203,73.5300064086914
124.213,71.0800018310547
124.222,66.9900054931641
124.232,56.4900016784668
124.242,56.7700042724609
124.252,58.4500045776367
124.262,56.4500045776367
124.272,59.3200035095215
124.282,74.0200042724609
124.292,82.8100051879883
124.302,89.8800048828125
124.312,92.3600006103516
124.322,82.9800033569336
124.332,68.140007019043
124.342,66.4300003051758
124.352,63.6300048828125
124.362,66.4600067138672
124.372,97.890007019043
124.382,135.310012817383
124.392,155.5
124.402,178.990005493164
124.412,188.330001831055
124.421,181.120010375977
124.431,172.550003051758
124.441,143.389999389648
124.451,90.2300033569336
124.461,37.5200004577637
124.471,-21.5900001525879
124.481,-70.7300033569336
124.491,-95.3000030517578
124.501,-113.710006713867
124.511,-133.029998779297
124.521,-126.490005493164
124.531,-110.530006408691
124.541,-75.0400009155273
124.551,-22.6400012969971
124.561,15.8900003433228
124.571,40.4200019836426
124.581,67.4800033569336
124.591,102.620002746582
124.601,135.100006103516
124.611,158.830001831055
124.619,169.190002441406
124.629,171.740005493164
124.639,191.940002441406
124.649,223.260009765625
124.659,249.440017700195
124.669,273.630004882812
124.679,263.690002441406
124.689,226.520004272461
124.699,199.780014038086
124.709,143.600006103516
124.719,83.890007019043
124.729,30.9000015258789
124.739,-38.8500022888184
124.749,-75.1800003051758
124.759,-99.5000076293945
124.769,-100.17000579834
124.779,-70.5900039672852
124.789,-42.1400032043457
124.799,-13.1900005340576
124.809,18.0200004577637
124.813,83.0200042724609
124.823,63.5200042724609
124.833,52.1500015258789
124.843,47.3200035095215
124.853,38.25
124.863,23.310001373291
124.873,11.8600006103516
124.883,5.14000034332275
124.893,7.59000015258789
124.903,-2.34000015258789
124.913,-35.1400032043457
124.923,-82.390007019043
124.933,-110.140007019043
124.943,-137.550003051758
124.953,-161.730010986328
124.963,-178.740005493164
124.972,-194.210006713867
124.982,-182.700012207031
124.992,-162.120010375977
125.002,-134.220001220703
125.012,-94.0800018310547
125.022,-59.6000022888184
125.032,-16.2000007629395
125.042,25.2700004577637
125.052,51.060001373291
125.062,77.7700042724609
125.072,81.9300003051758
125.082,78.890007019043
125.092,75.4200057983398
125.102,74.1600036621094
125.112,70.5200042724609
125.122,87.0100021362305
125.132,110.210006713867
125.142,117.910003662109
125.152,134.120010375977
125.162,155.050003051758
125.171,176.190002441406
125.181,180.420013427734
125.191,175.350006103516
125.201,163.450012207031
125.211,161.490005493164
125.221,188.960006713867
125.231,199.570007324219
125.241,187.810012817383
125.251,155.610000610352
125.261,126.730003356934
125.271,91.3500061035156
125.281,47.9800033569336
125.291,-5.18000030517578
125.301,-70.6600036621094
125.311,-125.230003356934
125.321,-140.940002441406
125.331,-140.139999389648
125.341,-133.980010986328
125.351,-112.870002746582
125.361,-90.8600006103516
125.369,-49.3800010681152
125.379,-1.50000011920929
125.389,29.6800022125244
125.399,44.0300025939941
125.409,46.2300033569336
125.419,51.2400016784668
125.429,54.7000007629395
125.439,48.680004119873
125.449,34.4400024414062
125.459,6.33000040054321
125.469,-11.7900009155273
125.479,-14.1400003433228
125.489,-25.1600017547607
125.499,-36.1900024414062
125.509,-50.0100021362305
125.519,-52.2200012207031
125.529,-35.3800010681152
125.539,-12.0700006484985
125.549,9.38000011444092
125.559,22.5400009155273
125.563,130.060012817383
125.573,129.320007324219
125.583,131.770004272461
125.593,134.330001831055
125.603,117.110008239746
125.613,83.4400024414062
125.623,45.2500038146973
125.633,20.230001449585
125.643,14.3100004196167
125.653,2.45000004768372
125.663,-26.8400020599365
125.673,-34.1900024414062
125.683,-25.2000007629395
125.693,-10.2900009155273
125.703,8.15000057220459
125.713,0.450000017881393
125.723,-6.26000022888184
125.733,7.91000032424927
125.743,14.4200010299683
125.753,10.8500003814697
125.763,-9.20000076293945
125.773,-28.6600017547607
125.783,-34.0200004577637
125.793,-22.9600009918213
125.803,-15.2600011825562
125.813,-24.3900012969971
125.823,-26.7700004577637
125.833,-8.22000026702881
125.843,15.4000005722046
125.853,24.1800003051758
125.863,21.5200004577637
125.873,17.0100002288818
125.883,26.6300010681152
125.893,42.0000038146973
125.903,42.0700035095215
125.913,37.9400024414062
125.921,24.4300003051758
125.931,34.7900009155273
125.941,52.8500022888184
125.951,56.0700035095215
125.961,50.680004119873
125.971,43.6800003051758
125.981,63.2800025939941
125.991,82.140007019043
126.001,80.1500015258789
126.011,72.620002746582
126.021,63.560001373291
126.031,38.1800003051758
126.041,15.6400003433228
126.051,-3.50000023841858
126.061,-13.0500001907349
126.071,-19.4200000762939
126.081,-26.3500003814697
126.091,-20.8200016021729
126.101,-5.25000047683716
126.111,13.9600009918213
126.119,26.5300006866455
126.129,20.5800018310547
126.139,20.1900005340576
126.149,31.1800022125244
126.159,32.1300010681152
126.169,35.3800010681152
126.179,22.1500015258789
126.189,15.5400009155273
126.199,20.0500011444092
126.209,22.5000019073486
126.219,-2.55000019073486
126.229,-6.93000030517578
126.239,4.09000015258789
126.249,3.92000007629395
126.259,2.03000020980835
126.269,-1.22000002861023
126.279,4.13000011444092
126.289,16.2400016784668
126.299,27.3000011444092
126.309,25.9000015258789
126.313,33.5300025939941
126.323,48.6500015258789
126.333,52.1100006103516
126.343,37.8300018310547
126.353,50.3300018310547
126.363,76.9600067138672
126.373,74.5100021362305
126.383,47.9800033569336
126.393,34.8200035095215
126.403,20.4000015258789
126.413,-10.6400003433228
126.423,-34.0900001525879
126.433,-34.5800018310547
126.443,-25.9300003051758
126.453,-26.3500003814697
126.463,-45.5700035095215
126.472,-57.1900024414062
126.482,-37.060001373291
126.492,-21.6600017547607
126.502,-33.5300025939941
126.512,-23.3400020599365
126.522,10.9500007629395
126.532,27.8900012969971
126.542,19.0700016021729
126.552,24.7800006866455
126.562,47.1400032043457
126.572,50.1500015258789
126.582,24.3600006103516
126.592,-9.20000076293945
126.602,-22.0100002288818
126.612,-30.480001449585
126.622,-48.2300033569336
126.632,-45.3200035095215
126.642,-16.730001449585
126.652,-20.6100006103516
126.662,-37.5900001525879
