Time,GyroX
439.531,46.060001373291
439.541,30.5900020599365
439.551,39.4800033569336
439.561,53.3400039672852
439.571,62.4400024414062
439.606,28.9400005340576
439.616,-23.730001449585
439.626,-79.3800048828125
439.636,-109.620002746582
439.646,-67.5500030517578
439.656,-32.5100021362305
439.666,1.71000003814697
439.676,1.47000002861023
439.686,3.57000017166138
439.696,66.5
439.706,38.4300003051758
439.716,17.6400012969971
439.726,58.8000030517578
439.736,35.7000007629395
439.746,33.8400001525879
439.756,8.19000053405762
439.766,-13.4400005340576
439.776,14.2400007247925
439.786,15.9200010299683
439.796,0.280000001192093
439.799,-8.92000007629395
439.809,-7.3100004196167
439.819,0.560000002384186
439.829,11.4400005340576
439.839,34.0200004577637
439.849,25.4100017547607
439.859,14.0300006866455
439.869,9.48000049591064
439.879,20.5800018310547
439.889,45.6700019836426
439.899,60.4800033569336
439.909,27.7200012207031
439.919,7.4200005531311
439.929,4.41000032424927
439.939,23.6600017547607
439.949,35.3800010681152
439.958,-19.0400009155273
439.968,-1.6100001335144
439.978,35.5200004577637
439.988,18.3000011444092
439.998,15.5700006484985
440.008,-5.98000049591064
440.018,14.2400007247925
440.028,70.4200057983398
440.038,61.9100036621094
440.048,28.8700008392334
440.058,-25.230001449585
440.068,-91.4200057983398
440.078,-96.6700057983398
440.088,-57.5000038146973
440.098,-28.5200004577637
440.108,-37.4800033569336
440.118,-23.5200004577637
440.128,-19.7400016784668
440.138,30.5200023651123
440.148,42.9100036621094
440.157,49.1000022888184
440.167,16.480001449585
440.177,58.620002746582
440.187,85.2900009155273
440.197,48.680004119873
440.207,65.4500045776367
440.217,40.7400016784668
440.227,37.8300018310547
440.237,47.4600028991699
440.247,31.2900009155273
440.257,43.9900016784668
440.267,26.2800006866455
440.277,-6.82000017166138
440.287,5.07000017166138
440.297,-17.1800003051758
440.307,-40.6300010681152
440.317,-11.3000001907349
440.327,-21.2800006866455
440.337,-23.5200004577637
440.347,3.01000022888184
440.352,70.0300064086914
440.362,97.6800079345703
440.372,85.890007019043
440.382,50.7800025939941
440.392,-26.7000007629395
440.402,-23.1700019836426
440.412,-21.3500003814697
440.422,-23.5200004577637
440.432,-28.1000003814697
440.442,-4.65000009536743
440.452,20.1900005340576
440.462,47.6300010681152
440.472,14.5900011062622
440.482,10.0800008773804
440.492,25.3700008392334
440.502,18.6500015258789
440.509,7.91000032424927
440.519,-14.2400007247925
440.529,-32.5500030517578
440.539,6.82000017166138
440.549,8.53999996185303
440.559,26.9500007629395
440.569,55.3000030517578
440.579,41.8600006103516
440.589,63.3800048828125
440.599,63.7300033569336
440.609,38.6400032043457
440.619,54.9800033569336
440.629,21.2800006866455
440.639,-22.9200019836426
440.649,-30.6900005340576
440.659,-38.9500007629395
440.669,-11.9000005722046
440.679,-4.23000001907349
440.689,3.57000017166138
440.699,8.40000057220459
440.708,31.0100021362305
440.718,48.8900032043457
440.728,78.2200012207031
440.738,45.7100028991699
440.748,45.1500015258789
440.758,30.0300006866455
440.768,23.5200004577637
440.778,14.6600008010864
440.788,-6.02000045776367
440.798,-1.89000010490417
440.808,3.3600001335144
440.818,22.8500003814697
440.828,49.9800033569336
440.838,57.7500038146973
440.848,47.1100006103516
440.858,49.6600036621094
440.868,13.9300003051758
440.878,-0.350000023841858
440.888,-31.7800006866455
440.898,-48.4700012207031
440.907,-31.6000022888184
440.917,-19.8400001525879
440.927,18.060001373291
440.937,37.3800010681152
440.947,47.2500038146973
440.957,90.7500076293945
440.967,101.600006103516
440.977,114.690002441406
440.987,139.720001220703
440.997,99.2900009155273
441.007,69.3000030517578
441.017,68.9100036621094
441.027,21.9400005340576
441.037,-10.6400003433228
441.047,-37.1300010681152
441.057,-66.4600067138672
441.067,-72.6600036621094
441.077,-46.7600021362305
441.087,-48.2300033569336
441.097,-24.810001373291
441.102,-5.98000049591064
441.112,-23.9400005340576
441.122,-32.5500030517578
441.132,-20.8600006103516
441.142,-27.3000011444092
441.152,-21.4500007629395
441.162,-9.20000076293945
441.172,-3.64000010490417
441.182,-7.35000038146973
441.192,29.8200016021729
441.202,13.7900009155273
441.212,16.7600002288818
441.222,11.3700008392334
441.232,-14.6300010681152
441.242,-1.26000010967255
441.252,4.76000022888184
441.259,7.1700005531311
441.269,34.6100006103516
441.279,34.7900009155273
441.289,57.0800018310547
441.299,80.25
441.309,73.0400009155273
441.319,67.7600021362305
441.329,71.8500061035156
441.339,62.0200042724609
441.349,62.930004119873
441.359,47.6000022888184
441.369,33.3900032043457
441.379,42.8000030517578
441.389,53.0200042724609
441.399,45.9500007629395
441.409,58.0300025939941
441.419,41.9600028991699
441.429,42.2800025939941
441.439,52.5300025939941
441.449,17.1100006103516
441.458,-16.0300006866455
441.468,-43.7800025939941
441.478,-81.2300033569336
441.488,-108.01000213623
441.498,-123.270004272461
441.508,-149.620010375977
441.518,-131.600006103516
441.528,-104.960006713867
441.538,-57.1500015258789
441.548,5.5600004196167
441.558,68.4200057983398
441.568,114.130004882812
441.578,152.670013427734
441.588,166.040008544922
441.598,175.770004272461
441.608,167.610000610352
441.618,150.25
441.628,119.070007324219
441.638,73.0800018310547
441.648,32.6900024414062
441.657,21.730001449585
441.667,-13.0200004577637
441.677,-54.6700019836426
441.687,-60.620002746582
441.697,-75.2800064086914
441.707,-43.6800003051758
441.717,13.7200002670288
441.727,23.1700019836426
441.737,41.120002746582
441.747,59.430004119873
441.757,64.75
441.767,93.1700057983398
441.777,85.8200073242188
441.787,54.1400032043457
441.797,12.1100006103516
441.807,-12.8100004196167
441.817,-23.2700004577637
441.827,-2.73000001907349
441.837,-21.7700004577637
441.847,-44.2000007629395
441.851,13.6500005722046
441.861,16.5500011444092
441.871,33.3199996948242
441.881,63.0000038146973
441.891,84.3100051879883
441.901,84.9800033569336
441.911,80.5300064086914
441.921,69.4400024414062
441.931,58.4100036621094
441.941,67.4100036621094
441.951,51.620002746582
441.961,-4.90000009536743
441.971,-51.4500007629395
441.981,-124.810005187988
441.991,-175.870010375977
442.001,-174.750015258789
442.009,-162.750015258789
442.019,-100.17000579834
442.029,-2.62000012397766
442.039,80.2200012207031
442.049,132.820007324219
442.059,157.18000793457
442.069,179.900009155273
442.079,173.320007324219
442.089,152.280014038086
442.099,94.0100021362305
442.109,24.6000003814697
442.119,-11.4100008010864
442.129,4.97000026702881
442.139,36.2900009155273
442.149,53.2700042724609
442.159,54.3900032043457
442.169,73.8800048828125
442.179,102.720001220703
442.189,98.6600036621094
442.199,57.6400032043457
442.208,17.3900012969971
442.218,-1.08000004291534
442.228,-6.47000026702881
442.238,1.57000005245209
442.248,7.5600004196167
442.258,18.3700008392334
442.268,55.7900009155273
442.278,100.450004577637
442.288,130.09001159668
442.298,137.510009765625
442.308,148.68000793457
442.318,158.580001831055
442.328,141.43000793457
442.338,85.2600021362305
442.348,19.4900016784668
442.358,-38.1500015258789
442.368,-66.7400054931641
442.378,-117.490005493164
442.388,-176.470001220703
442.398,-189.490005493164
442.407,-172.900009155273
442.417,-126.700004577637
442.427,-71.0500030517578
442.437,-14.0300006866455
442.447,48.0500030517578
442.457,118.120002746582
442.467,163.170013427734
442.477,182.910003662109
442.487,170.800003051758
442.497,128.940002441406
442.507,88.4400024414062
442.517,-4.09000015258789
442.527,-144.160003662109
442.537,-257.559997558594
442.547,-245.030014038086
442.557,-195.160003662109
442.567,-109.690002441406
442.577,-8.28999996185303
442.587,68.9800033569336
442.597,125.050003051758
442.601,254.52001953125
442.611,210.140014648438
442.621,111.820007324219
442.631,17.9900016784668
442.641,-32.0900001525879
442.651,-69.6100006103516
442.661,-116.300003051758
442.671,-110.42000579834
442.681,-107.520004272461
442.691,-134.360000610352
442.701,-106.120002746582
442.711,-78.75
442.721,-58.8000030517578
442.731,-17.8500003814697
442.741,44.1700019836426
442.751,80.8100051879883
442.759,93.3800048828125
442.769,99.7800064086914
442.779,78.9900054931641
442.789,70.2100067138672
442.799,65.0600051879883
442.809,78.1900024414062
442.819,98.8400039672852
442.829,124.490005493164
442.839,140.770004272461
442.849,146.330001831055
442.859,160.68000793457
442.869,139.720001220703
442.879,87.7400054931641
442.889,32.7900009155273
442.899,-24.5000019073486
442.909,-64.8199996948242
442.919,-92.3600006103516
442.929,-110.490005493164
442.939,-103.770004272461
442.949,-84.2400054931641
442.958,-55.0200042724609
442.968,-34.3300018310547
442.978,-9.80000019073486
442.988,-0.490000009536743
442.998,29.6400012969971
443.008,50.680004119873
443.018,42.870002746582
443.028,50.430004119873
443.038,74.1300048828125
443.048,77.0700073242188
443.058,95.8600082397461
443.068,102.370002746582
443.078,71.8500061035156
443.088,55.7900009155273
443.098,9.83000087738037
443.108,-45.9200019836426
443.118,-85.9200057983398
443.128,-127.260009765625
443.138,-123.790008544922
443.148,-58.4500045776367
443.157,-51.870002746582
443.167,-22.5400009155273
443.177,13.8200006484985
443.187,21.2800006866455
443.197,16.5900001525879
443.207,-34.5800018310547
443.217,-82.0000076293945
443.227,-118.68000793457
443.237,-145.740005493164
443.247,-129.110000610352
443.257,-80.2900009155273
443.267,12.5300006866455
443.277,59.3200035095215
443.287,61.8400039672852
443.297,97.7900009155273
443.307,111.68000793457
443.317,103.320007324219
443.327,126.000007629395
443.337,79.3400039672852
443.347,17.1800003051758
443.351,39.4100036621094
443.361,29.0100021362305
443.371,43.4700012207031
443.381,57.8900032043457
443.391,26.4200019836426
443.401,41.3300018310547
443.411,92.5700073242188
443.421,94.9200057983398
443.431,89.3500061035156
443.441,63.7700042724609
443.451,30.060001373291
443.461,30.9700012207031
443.471,7.87000036239624
443.481,-35.6599998474121
443.491,-36.0500030517578
443.501,-21.7700004577637
443.509,-10.8800001144409
443.519,29.9600009918213
443.529,72.1000061035156
443.539,51.8000030517578
443.549,68.0699996948242
443.559,90.2300033569336
443.569,100.240005493164
443.579,70.3800048828125
443.589,35.3500022888184
443.599,-2.45000004768372
443.609,-32.0900001525879
443.619,-63.4500045776367
443.629,-81.8300018310547
443.639,-91.3500061035156
443.649,-79.6600036621094
443.659,-40
443.669,-5.18000030517578
443.679,2.13000011444092
443.689,23.9400005340576
443.699,62.930004119873
443.708,82.8100051879883
443.718,58.4500045776367
443.728,31.4600009918213
443.738,23.5900020599365
443.748,13.1900005340576
443.758,12.4600009918213
443.768,-1.4300000667572
443.778,-18.7900009155273
443.788,-23.060001373291
443.798,0.21000000834465
443.808,18.3400001525879
443.818,25.4400005340576
443.828,41.7900009155273
443.838,26.6000003814697
443.848,3.71000027656555
443.858,7.10000038146973
443.868,20.5100002288818
443.878,27.1900005340576
443.888,5.5600004196167
443.898,-33.0400009155273
443.906,-34.120002746582
443.916,-34.0500030517578
443.926,-54.6000022888184
443.936,-30.8000011444092
443.946,-8.28999996185303
443.956,-10.5700006484985
443.966,12.1400003433228
443.976,17.6400012969971
443.986,4.16000032424927
443.996,12.0400009155273
444.006,4.23000001907349
444.016,0.870000064373016
444.026,31.5300006866455
444.036,46.2300033569336
444.046,73.0400009155273
444.056,84.6600036621094
444.066,57.8900032043457
444.076,42.2400016784668
444.086,38.4300003051758
444.096,26.2800006866455
444.1,-5.25000047683716
444.11,12.7400007247925
444.12,37.9400024414062
444.13,13.8900003433228
444.14,9.38000011444092
444.15,47.9800033569336
444.16,63.0700035095215
444.17,45.2900009155273
444.18,-5.39000034332275
444.19,-19.4600009918213
444.2,-36.2200012207031
444.21,-58.4100036621094
444.22,-43.6400032043457
444.23,-25.060001373291
444.24,-34.370002746582
444.25,-4.16000032424927
444.259,57.7500038146973
444.269,34.6800003051758
444.279,10.9200000762939
444.289,38.3200035095215
444.299,52.0100021362305
444.309,25.6200008392334
444.319,-4.09000015258789
444.329,33.3500022888184
444.339,58.4800033569336
444.349,16.8299999237061
444.359,-23.9000015258789
444.369,-28.4900016784668
444.379,-10.2900009155273
444.389,9.17000007629395
444.399,23.5200004577637
444.409,-17.4600009918213
444.419,-34.6500015258789
444.429,-74.9000015258789
444.439,-59.810001373291
444.449,-3.67000007629395
444.458,42.1400032043457
444.468,64.5400009155273
444.478,64.1900024414062
444.488,45.1500015258789
444.498,66.3899993896484
444.508,31.8500022888184
444.518,4.65000009536743
444.528,-21.2400016784668
444.538,-10.5000009536743
444.548,-32.370002746582
444.558,-37.060001373291
444.568,-54.560001373291
444.578,-30.3800010681152
444.588,36.75
444.598,33.9800033569336
444.608,31.6700019836426
444.618,58.6900024414062
444.628,25.9300003051758
444.638,9.66000080108643
444.648,29.0800018310547
444.656,26.4600009918213
444.666,7.49000024795532
444.676,-24.4300003051758
444.686,-28.6600017547607
444.696,29.3600006103516
444.706,35.1700019836426
444.716,-26.0400009155273
444.726,-11.8600006103516
444.736,6.33000040054321
444.746,43.1900024414062
444.756,47.4900016784668
444.766,-36.8500022888184
444.776,-8.47000026702881
444.786,29.1900005340576
444.796,3.32000017166138
444.806,-23.730001449585
444.816,-48.4700012207031
444.826,-57.3600044250488
444.836,-25.6900005340576
444.846,-14.0000009536743
444.85,41.1900024414062
444.86,58.8300018310547
444.87,37.7600021362305
444.88,-23.3800010681152
444.89,-25.0200004577637
444.9,7.1700005531311
444.91,-11.4100008010864
444.92,-21.4200000762939
444.93,-5.14000034332275
444.94,24.6400012969971
444.95,29.6100006103516
444.96,30.9400005340576
444.97,80.4300003051758
444.98,102.650001525879
444.99,72.620002746582
445,58.5500030517578
445.009,47.1400032043457
445.019,-7.5600004196167
445.029,-27.1900005340576
445.039,-65.1700057983398
445.049,-84.6600036621094
445.059,-51.1300010681152
445.069,-80.6000061035156
445.079,-63.7700042724609
445.089,3.39000010490417
445.099,49.3500022888184
445.109,82.7700042724609
445.119,95.3000030517578
445.129,101.740005493164
445.139,86.1700057983398
445.149,65.0600051879883
445.159,40.4200019836426
445.169,6.68000030517578
445.179,-41.6100006103516
445.189,-68.25
445.199,-59.5300025939941
445.208,-29.1500015258789
445.218,-27.6500015258789
445.228,20.0900001525879
445.238,24.9200019836426
445.248,35.9099998474121
445.258,25.0900020599365
445.268,31.1500015258789
445.278,55.4700012207031
445.288,56.8000030517578
445.298,40.3500022888184
445.308,10.710000038147
445.318,35.4900016784668
445.328,40.2800025939941
445.338,27.0900020599365
445.348,47.1400032043457
445.358,75.6700057983398
445.368,74.5100021362305
445.378,53.2700042724609
445.388,58.3800010681152
445.398,20.3300018310547
445.406,-23.060001373291
445.416,-41.120002746582
445.426,-74.5500030517578
445.436,-57.6100044250488
445.446,-50.4000015258789
445.456,-55.6500015258789
445.466,-13.6500005722046
445.476,-13.0200004577637
445.486,14.4200010299683
445.496,28.0000019073486
445.506,24.3600006103516
445.516,22.4300003051758
445.526,35.5200004577637
445.536,40.9100036621094
445.546,59.810001373291
445.556,83.120002746582
445.566,87.5000076293945
445.576,105.980003356934
445.586,115.710006713867
445.596,116.480003356934
445.6,-29.1900005340576
445.61,-72.6600036621094
445.62,-83.120002746582
445.63,-86.5200042724609
445.64,-74.0600051879883
445.65,-71.4300003051758
445.66,-27.7900009155273
445.67,-9.24000072479248
445.68,9.34000015258789
445.69,35.8400001525879
445.7,38.2200012207031
445.71,62.3000030517578
445.72,61.1400032043457
445.73,95.3000030517578
445.74,96.390007019043
445.75,109.650001525879
445.759,108.040008544922
445.769,79.8300018310547
445.779,64.0100021362305
445.789,22.7800006866455
445.799,-5.28000020980835
445.809,-12.2800006866455
445.819,-24.8800010681152
445.829,-14.6300010681152
445.839,-2.80000019073486
445.849,16.1700000762939
445.859,-0.0300000011920929
445.869,22.4700012207031
445.879,-1.33000004291534
445.889,3.53000020980835
445.899,13.3700008392334
445.909,7.98000049591064
445.919,43.9900016784668
445.929,47.4200019836426
445.939,29.0100021362305
445.949,52.4600028991699
445.958,36.5
445.968,8.78000068664551
445.978,-5.70000028610229
445.988,-62.7500038146973
445.998,-105.42000579834
446.008,-107.480003356934
446.018,-97.8600082397461
446.028,-130.060012817383
446.038,-109.720008850098
446.048,-109.93000793457
446.058,-91.7700042724609
446.068,-81.1300048828125
446.078,-49.7300033569336
446.088,-23.060001373291
446.098,26.7000007629395
446.108,60.930004119873
446.118,67.3400039672852
446.128,55.1600036621094
446.138,50.8200035095215
446.148,32.5500030517578
446.156,16.6900005340576
446.166,-3.04000020027161
446.176,-28.4500007629395
446.186,-42.7300033569336
446.196,-47.7400016784668
446.206,-47.3900032043457
446.216,-42.7700004577637
446.226,-24.9500007629395
446.236,-8.85000038146973
446.246,15.4300003051758
446.256,36.6400032043457
446.266,38.5300025939941
446.276,60.9000015258789
446.286,73.7800064086914
446.296,74.1600036621094
446.306,82.6700057983398
446.316,75.5300064086914
446.326,64.7800064086914
446.336,72.8000030517578
446.346,67.7200012207031
446.35,90.7900009155273
446.36,80.2900009155273
446.37,77.1700057983398
446.38,52.7800025939941
446.39,-0.840000033378601
446.4,-29.7500019073486
446.41,-69.9300003051758
446.42,-122.18000793457
446.43,-153.400009155273
446.44,-182.59001159668
446.45,-187.770004272461
446.46,-176.890014648438
446.47,-173.630004882812
446.48,-168.700012207031
446.49,-163.550003051758
446.5,-162.820007324219
446.509,-161.800003051758
446.519,-148.150009155273
446.529,-106.570007324219
446.539,-64.5699996948242
446.549,5.67000007629395
446.559,84.870002746582
446.569,129.080001831055
446.579,162.990005493164
446.589,176.540008544922
446.599,161.310012817383
446.609,153.120010375977
446.619,143.780014038086
446.629,129.360000610352
446.639,141.920013427734
446.649,161.730010986328
446.659,159.84001159668
446.669,163.59001159668
446.679,183.920013427734
446.689,183.920013427734
446.699,179.760009765625
446.708,195.020004272461
446.718,197.990005493164
446.728,175.280014038086
446.738,166.320007324219
446.748,159.040008544922
446.758,111.610008239746
446.768,66.0400009155273
446.778,30.2700023651123
446.788,-23.8000011444092
446.798,-69.7200012207031
446.808,-83.6800003051758
446.818,-96.3500061035156
446.828,-103.460006713867
446.838,-59.5300025939941
446.848,0.310000002384186
446.858,53.5100021362305
446.868,122.290008544922
446.878,181.300003051758
446.888,204.850006103516
446.898,196.280014038086
446.906,193.550003051758
446.916,154.210006713867
446.926,94.3200073242188
446.936,57.2200012207031
446.946,-3.53000020980835
446.956,-59.6000022888184
446.966,-68.1100006103516
446.976,-43.9200019836426
446.986,-10.6700000762939
446.996,45.9200019836426
447.006,92.4000015258789
447.016,93.2000045776367
447.026,94.4300079345703
447.036,75.6700057983398
447.046,17.1800003051758
447.056,-43.1500015258789
447.066,-96.6300048828125
447.076,-121.690002441406
447.086,-135.940002441406
447.096,-131.700012207031
447.1,131.700012207031
447.11,144.93000793457
447.12,153.470001220703
447.13,152.070007324219
447.14,134.639999389648
447.15,107.480003356934
447.16,86.6600036621094
447.17,37.5200004577637
447.18,-9.8700008392334
447.19,-42.9400024414062
447.2,-68.2800064086914
447.21,-77.1700057983398
447.22,-62.8900032043457
447.23,-32.3000030517578
447.24,10.1500005722046
447.25,52.2900009155273
447.259,84.9100036621094
447.269,130.790008544922
447.279,151.160003662109
447.289,160.260009765625
447.299,179.620010375977
447.309,207.230010986328
447.319,214.690017700195
447.329,218.850006103516
447.339,208.320007324219
447.349,201.530014038086
447.359,175.450012207031
447.369,148.050003051758
447.379,110.980003356934
447.389,60.620002746582
447.399,28.1700019836426
447.409,-12.9100008010864
447.419,-35.4200019836426
447.429,-59.180004119873
447.439,-66.2900009155273
447.449,-50.4700012207031
447.458,-20.7900009155273
447.468,6.26000022888184
447.478,40.7700004577637
447.488,36.6100006103516
447.498,25.2700004577637
447.508,10.5700006484985
447.518,-12.3500003814697
447.528,-23.6600017547607
447.538,-39.9000015258789
447.548,-66.8100051879883
447.558,-83.8600006103516
447.568,-42.0300025939941
447.578,-6.89000034332275
447.588,32.060001373291
447.598,51.5200042724609
447.608,31.9500007629395
447.618,20.4000015258789
447.628,-0.730000019073486
447.638,-36.75
447.648,-69.5800018310547
447.656,-91.5200042724609
447.666,-87.9900054931641
447.676,-59.3900032043457
447.686,4.76000022888184
447.696,67.4100036621094
447.706,120.68000793457
447.716,164.670013427734
447.726,202.860015869141
447.736,242.760009765625
447.746,237.960006713867
447.756,189.59001159668
447.766,121.380004882812
447.776,49.5900039672852
447.786,-10.460000038147
447.796,-67.0600051879883
447.806,-94.1100082397461
447.816,-99.3300018310547
447.826,-75.0400009155273
447.836,-22.5000019073486
447.846,31.0400009155273
447.85,69.370002746582
447.86,9.8700008392334
447.87,-47.180004119873
447.88,-82.6700057983398
447.89,-92.120002746582
447.9,-82.8100051879883
447.91,-51.0300025939941
447.92,4.41000032424927
447.93,53.6900024414062
447.94,92.890007019043
447.95,116.93000793457
447.96,119.280006408691
447.97,79.7600021362305
447.98,38.1500015258789
447.99,-0.940000057220459
448,-21.6600017547607
448.009,-46.6500015258789
448.019,-85.9600067138672
448.029,-108.390007019043
448.039,-108.360008239746
448.049,-116.230003356934
448.059,-110.490005493164
448.069,-122.320007324219
448.079,-94.5000076293945
448.089,-54.2500038146973
448.099,-24.1500015258789
448.109,-16.5500011444092
448.119,-13.6500005722046
448.129,20.0500011444092
448.139,63.0000038146973
448.149,98.7000045776367
448.159,142.520004272461
448.169,163.830001831055
448.179,184.410003662109
448.189,195.470016479492
448.199,181.510009765625
448.207,172.34001159668
448.217,136.990005493164
448.227,60.370002746582
448.237,12.7700004577637
448.247,-22.9900016784668
448.257,-37.6600036621094
448.267,-61.3200035095215
448.277,-75.8100051879883
448.287,-106.400001525879
448.297,-85.120002746582
448.307,-55.7200012207031
448.317,-24.5000019073486
448.327,1.4300000667572
448.337,36.120002746582
448.347,79.4100036621094
448.357,117.630004882812
448.367,128.200012207031
448.377,130.09001159668
448.387,126.870002746582
448.397,103.630004882812
448.406,78.75
448.416,78.5400009155273
448.426,96.390007019043
448.436,129.529998779297
448.446,152.910003662109
448.456,171.290008544922
448.466,169.500015258789
448.476,124.490005493164
448.486,32.4800033569336
448.496,-46.7200012207031
448.506,-122.880004882812
448.516,-188.93000793457
448.526,-233.060012817383
448.536,-240.620010375977
448.546,-191.380004882812
448.556,-111.26000213623
448.566,-21.9100017547607
448.576,42.1400032043457
448.586,92.5400009155273
448.596,119.240005493164
448.6,143.150009155273
448.61,54.5300025939941
448.62,13.4000005722046
448.63,-13.4000005722046
448.64,-35.9800033569336
448.65,-69.890007019043
448.66,-90.8200073242188
448.67,-81.9000015258789
448.68,-60.0200042724609
448.69,-69.890007019043
448.7,-106.400001525879
448.71,-135.480010986328
448.72,-144.900009155273
448.73,-118.400009155273
448.74,-95.1600036621094
448.75,-42.7700004577637
448.759,10.9200000762939
448.769,62.4700012207031
448.779,110.350006103516
448.789,154.210006713867
448.799,161.170013427734
448.809,158.440002441406
448.819,154.770004272461
448.829,159.770004272461
448.839,138.630004882812
448.849,95.7600021362305
448.859,47.9100036621094
448.869,38.5300025939941
448.879,43.1500015258789
448.889,50.4700012207031
448.899,31.1500015258789
448.909,22.0500011444092
448.919,17.2200012207031
448.929,-1.47000002861023
448.939,-17.0400009155273
448.949,-40.2800025939941
448.957,-71.2200012207031
448.967,-88.7900009155273
448.977,-76.4700012207031
448.987,-52.2500038146973
448.997,-24.7100009918213
449.007,3.64000010490417
449.017,36.5
449.027,75.8400039672852
449.037,112.140007019043
449.047,125.300003051758
449.057,123.090003967285
449.067,131.25
449.077,127.010009765625
449.087,104.890007019043
449.097,81.5800018310547
449.107,58.2400016784668
449.117,36.3600006103516
449.127,22.4300003051758
449.137,10.7400007247925
449.147,11.4400005340576
449.156,13.9300003051758
449.166,15.5000009536743
449.176,26.4600009918213
449.186,46.1600036621094
449.196,60.3400039672852
449.206,62.1600036621094
449.216,70.3500061035156
449.226,82.140007019043
449.236,73.8500061035156
449.246,58.9700012207031
449.256,33.9099998474121
449.266,34.75
449.276,47.8800010681152
449.286,41.4700012207031
449.296,26.6700019836426
449.306,28.730001449585
449.316,35.0700035095215
449.326,31.0100021362305
449.336,27.5800018310547
449.346,25.2700004577637
449.35,-26.1800003051758
449.36,-44.9700012207031
449.37,-55.4700012207031
449.38,-52.8800010681152
449.39,-36.120002746582
449.4,-33.0699996948242
449.41,-3.71000027656555
449.42,30.310001373291
449.43,50.3600006103516
449.44,59.9900016784668
449.45,68
449.46,60.5500030517578
449.47,44.0300025939941
449.48,34.75
449.49,26.6700019836426
449.5,18.4100017547607
449.509,3.08000016212463
449.519,-2.03000020980835
449.529,19.3200016021729
449.539,26.8800010681152
449.549,28.1700019836426
449.559,26.8800010681152
449.569,48.4700012207031
449.579,64.6800003051758
449.589,74.2300033569336
449.599,70.4200057983398
449.609,66.9500045776367
449.619,59.8800010681152
449.629,53.060001373291
449.639,53.5800018310547
449.649,44.9400024414062
449.659,12.7700004577637
449.669,-23.8000011444092
449.679,-31.7400016784668
449.689,-29.1200008392334
449.699,-15.6400003433228
449.707,10.460000038147
449.717,44.2400016784668
449.727,53.3400039672852
449.737,70.0699996948242
449.747,98.6300048828125
449.757,112.210006713867
449.767,112.350006103516
449.777,101.640007019043
449.787,93.1700057983398
449.797,77.5600051879883
449.807,51.2700042724609
449.817,25.9000015258789
449.827,17.9900016784668
449.837,13.4000005722046
449.847,-13.5100002288818
449.857,-25.5800018310547
449.867,-33.9099998474121
449.877,-53.9000015258789
449.887,-62.5400047302246
449.897,-44.870002746582
449.906,-31.6000022888184
449.916,-30.3800010681152
449.926,-24.9500007629395
449.936,-6.8600001335144
449.946,-14.3500003814697
449.956,-22.6800003051758
449.966,-34.5800018310547
449.976,-59.6700019836426
449.986,-72.3800048828125
449.996,-74.4800033569336
450.006,-61.9800033569336
450.016,-51.6600036621094
450.026,-45.0100021362305
450.036,-30.4500007629395
450.046,-8.32999992370605
450.056,15.6400003433228
450.066,29.5400009155273
450.076,47.7400016784668
450.086,60.8600044250488
450.096,64.0100021362305
450.1,26.1800003051758
450.11,45.4300003051758
450.12,72.5200042724609
450.13,121.17000579834
450.14,156.100006103516
450.15,140.560012817383
450.16,110.070007324219
450.17,97.0500030517578
450.18,72.3100051879883
450.19,-5.21000003814697
450.2,-106.710006713867
450.21,-215.84001159668
450.22,-249.370010375977
450.23,-257.77001953125
450.24,-225.610015869141
450.25,-120.820007324219
450.259,-16.5900001525879
450.269,31.7100009918213
450.279,72.2400054931641
450.289,103.390007019043
450.299,119.590003967285
450.309,147.240005493164
450.319,174.440002441406
450.329,194.460006713867
450.339,209.230010986328
450.349,184.480010986328
450.359,137.580001831055
450.369,50.680004119873
450.379,-39.4800033569336
450.389,-71.890007019043
450.399,-107.100006103516
450.409,-164.530014038086
450.419,-126.520004272461
450.429,-104.050003051758
450.439,-77.8000030517578
450.449,-27.9600009918213
450.457,32.5500030517578
450.467,62.6100044250488
450.477,101.990005493164
450.487,161.380004882812
450.497,195.230010986328
450.507,197.190002441406
450.517,180.810012817383
450.527,139.330001831055
450.537,90.3000030517578
450.547,38.0400009155273
450.557,-7.5600004196167
450.567,-71.3600006103516
450.577,-98.0300064086914
450.587,-79.5500030517578
450.597,-42.2100028991699
450.607,-36.75
450.617,-39.5100021362305
450.627,-20.8200016021729
450.637,-25.060001373291
450.647,-26.3500003814697
450.656,-5.46000003814697
450.666,-24.4300003051758
450.676,-34.5100021362305
450.686,10.8100004196167
450.696,26.7400016784668
450.706,22.6400012969971
450.716,29.4700012207031
450.726,34.5100021362305
450.736,19.0400009155273
450.746,10.7400007247925
450.756,2.34000015258789
450.766,-29.4300022125244
450.776,-47.6000022888184
450.786,-29.4700012207031
450.796,-29.4300022125244
450.806,-44.3800010681152
450.816,-32.0900001525879
450.826,-28.2100009918213
450.836,-31.6400012969971
450.846,-7.24000024795532
450.85,9.17000007629395
450.86,0.870000064373016
450.87,10.1800003051758
450.88,1.22000002861023
450.89,1.85000014305115
450.9,6.93000030517578
450.91,-4.13000011444092
450.92,-20.8900012969971
450.93,-8.05000019073486
450.94,0.870000064373016
450.95,-17.5300006866455
450.96,-11.5800008773804
450.97,2.48000001907349
450.98,-3.85000014305115
450.99,2.66000008583069
451,13.3700008392334
451.009,-2.45000004768372
451.019,-7.52000045776367
451.029,3.04000020027161
451.039,-13.3000001907349
451.049,-23.060001373291
451.059,-14.1700010299683
451.069,-23.2000007629395
451.079,-34.3000030517578
451.089,-22.6800003051758
451.099,-7.49000024795532
451.109,-4.8600001335144
451.119,18.6200008392334
451.129,21.5200004577637
451.139,-11.4800004959106
451.149,-23.310001373291
451.159,-40.560001373291
451.169,-61.8400039672852
451.179,-56.310001373291
451.189,-43.9200019836426
451.199,-44.6600036621094
451.207,-18.7600002288818
451.217,19.2100009918213
451.227,31.7400016784668
451.237,49.310001373291
451.247,69.120002746582
451.257,52.9900016784668
451.267,37.1700019836426
451.277,16.6200008392334
451.287,-17.7400016784668
451.297,-32.370002746582
451.307,-23.2000007629395
451.317,-14.0300006866455
451.327,-3.25000023841858
451.337,2.06000018119812
451.347,-3.74000024795532
451.357,-4.09000015258789
451.367,-10.0100002288818
451.377,-20.7500019073486
451.387,-32.0200004577637
451.397,-26.6000003814697
451.406,-11.7200002670288
451.416,8.05000019073486
451.426,38.7800025939941
451.436,47.2100028991699
451.446,51.5900039672852
451.456,73.4300003051758
451.466,57.8500022888184
451.476,47.3500022888184
451.486,35.560001373291
451.496,4.26999998092651
451.506,-1.33000004291534
451.516,18.480001449585
451.526,30.5900020599365
451.536,61.2100028991699
451.546,93.1300048828125
451.556,85.1500015258789
451.566,93.3800048828125
451.576,90.7200012207031
451.586,55.5800018310547
451.596,35.3800010681152
451.6,-79.8000030517578
451.61,-82.0400009155273
451.62,-90.5800018310547
451.63,-132.540008544922
451.64,-155.360000610352
451.65,-184.520004272461
451.66,-236.950012207031
451.67,-235.860015869141
451.68,-188.300003051758
451.69,-135.480010986328
451.7,-60.1600036621094
451.71,5.63000011444092
451.72,60.060001373291
451.73,111.540008544922
451.74,140.770004272461
451.75,123.51000213623
451.759,87.8100051879883
451.769,61.0400047302246
451.779,11.0900001525879
451.789,-49.7700004577637
451.799,-77.3800048828125
451.809,-103.530006408691
451.819,-101.460006713867
451.829,-49.0000038146973
451.839,-20.4000015258789
451.849,-3.67000007629395
451.859,28.730001449585
451.869,54.9800033569336
451.879,67.7600021362305
451.889,77.4200057983398
451.899,88.4800033569336
451.909,105.100006103516
451.919,119.560005187988
451.929,113.190002441406
451.939,67.4100036621094
451.949,34.2600021362305
451.957,27.5800018310547
451.967,-7.24000024795532
451.977,-40.6000022888184
451.987,-67.4800033569336
451.997,-112.770004272461
452.007,-158.020004272461
452.017,-182.870010375977
452.027,-197.330001831055
452.037,-218.400009155273
452.047,-225.260009765625
452.057,-216.540008544922
452.067,-222.350006103516
452.077,-216.540008544922
452.087,-207.620010375977
452.097,-200.830017089844
452.107,-161.000015258789
452.117,-93.6600036621094
452.127,-35.4500007629395
452.137,11.9300003051758
452.147,70.1000061035156
452.156,101.500007629395
452.166,99.2600021362305
452.176,101.780006408691
452.186,82.3200073242188
452.196,31.5300006866455
452.206,-15.6100006103516
452.216,-49.7700004577637
452.226,-87.1800079345703
452.236,-107.660003662109
452.246,-112.450004577637
452.256,-125.090003967285
452.266,-136.18000793457
452.276,-119.030006408691
452.286,-96.140007019043
452.296,-74.620002746582
452.306,-33.7700004577637
452.316,20.0200004577637
452.326,74.4800033569336
452.336,125.510009765625
452.346,162.120010375977
452.35,132.75
452.36,82.8100051879883
452.37,49.4500007629395
452.38,22.2200012207031
452.39,9.10000038146973
452.4,19.2800006866455
452.41,35.6300010681152
452.42,51.5500030517578
452.43,62.5400047302246
452.44,57.6100044250488
452.45,33.4600028991699
452.46,-1.54000008106232
452.47,-26.5300006866455
452.48,-32.6900024414062
452.49,-35.9400024414062
452.5,-40.9100036621094
452.508,-21.6600017547607
452.518,-5
452.528,-7.03000020980835
452.538,-9.24000072479248
452.548,-8.57000064849854
452.558,-39.9000015258789
452.568,-81.370002746582
452.578,-110.42000579834
452.588,-137.790008544922
452.598,-170.830001831055
452.608,-174.820007324219
452.618,-126.730003356934
452.628,-54.0700035095215
452.638,34.1599998474121
452.648,118.580001831055
452.658,203.030014038086
452.668,263.790008544922
452.678,287.100006103516
452.688,288.990020751953
452.698,234.18000793457
452.707,155.470001220703
452.717,52.6000022888184
452.727,-49.1700019836426
452.737,-135.34001159668
452.747,-193.720016479492
452.757,-233.800018310547
452.767,-225.820007324219
452.777,-187.390014648438
452.787,-151.580001831055
452.797,-102.690002441406
452.807,-39.6500015258789
452.817,6.75000047683716
452.827,30.2000007629395
452.837,36.0500030517578
452.847,31.2500019073486
452.857,6.12000036239624
452.867,-42.4900016784668
452.877,-91.5600051879883
452.887,-128.550003051758
452.897,-147.490005493164
452.906,-141.220001220703
452.916,-105.380004882812
452.926,-54.9500007629395
452.936,10.8100004196167
452.946,84.5200042724609
452.956,162.990005493164
452.966,222.560012817383
452.976,248.390014648438
452.986,244.540008544922
452.996,220.710006713867
453.006,189.030014038086
453.016,149.59001159668
453.026,110.810005187988
453.036,81.2700042724609
453.046,53.1600036621094
453.056,49.5200004577637
453.066,50.1500015258789
453.076,53.370002746582
453.086,21.5200004577637
453.096,-44.7300033569336
453.1,-59.5700035095215
453.11,-45.0100021362305
453.12,-34.1900024414062
453.13,-16.9400005340576
453.14,15.1500005722046
453.15,27.4400005340576
453.16,28.2400016784668
453.17,24.5300006866455
453.18,27.6800022125244
453.19,43.5700035095215
453.2,48.0200004577637
453.21,32.6900024414062
453.22,10.2500009536743
453.23,-14.4200010299683
453.24,-43.3600006103516
453.25,-54.2100028991699
453.258,-76.6800003051758
453.268,-125.020004272461
453.278,-155.68000793457
453.288,-149.520004272461
453.298,-146.400009155273
453.308,-162.780014038086
453.318,-151.160003662109
453.328,-123.620002746582
453.338,-109.970008850098
453.348,-90.7500076293945
453.358,-75.4600067138672
453.368,-73.390007019043
453.378,-61.3900032043457
453.388,-38.6700019836426
453.398,1.75000011920929
453.408,66.0400009155273
453.418,133.630004882812
453.428,167.610000610352
453.438,172.160003662109
453.448,113.43000793457
453.457,42.560001373291
453.467,-0.770000040531158
453.477,-48.8200035095215
453.487,-114.030006408691
453.497,-138.350006103516
453.507,-121.520004272461
453.517,-105.630004882812
453.527,-77.1700057983398
453.537,-83.0900039672852
453.547,-83.4000015258789
453.557,-69.6100006103516
453.567,-31.5000019073486
453.577,41.7500038146973
453.587,138.770004272461
453.597,183.010009765625
453.607,204.010009765625
453.617,227.320007324219
453.627,234.670013427734
453.637,215.600006103516
453.647,143.530014038086
453.656,54.8400039672852
453.666,-16.8299999237061
453.676,-87.7100067138672
453.686,-157.320007324219
453.696,-196.240005493164
453.706,-245.560012817383
453.716,-309.780029296875
453.726,-349.120025634766
453.736,-368.510009765625
453.746,-349.720031738281
453.756,-304.810028076172
453.766,-203.520004272461
453.776,-85.9900054931641
453.786,14.6300010681152
453.796,104.050003051758
453.806,191.970016479492
453.816,251.860015869141
453.826,267.890014648438
453.836,242.900009155273
453.846,158.160003662109
453.85,-280.560028076172
453.86,-335.750030517578
453.87,-336.52001953125
453.88,-290.920013427734
453.89,-219.550003051758
453.9,-130.550003051758
453.91,-26.5300006866455
453.92,40.4600028991699
453.93,52.8500022888184
453.94,43.8200035095215
453.95,21.5900001525879
453.96,-29.7100009918213
453.97,-73.4600067138672
453.98,-87.8800048828125
453.99,-92.8200073242188
454,-73.5699996948242
454.008,-21.6600017547607
454.018,44.5900039672852
454.028,111.790008544922
454.038,164.880004882812
454.048,193.720016479492
454.058,199.390014648438
454.068,165.270004272461
454.078,118.51000213623
454.088,89.1800079345703
454.098,44.870002746582
454.108,-16.2400016784668
454.118,-64.6100006103516
454.128,-83.3300018310547
454.138,-100.310005187988
454.148,-107.060005187988
454.158,-77.5600051879883
454.168,-43.4000015258789
454.178,-3.25000023841858
454.188,42.1700019836426
454.198,88.3000030517578
454.207,116.480003356934
454.217,127.150009155273
454.227,137.020004272461
454.237,143.950012207031
454.247,108.950004577637
454.257,62.8200035095215
454.267,32.3400001525879
454.277,-8.75
454.287,-53.4400024414062
454.297,-74.2700042724609
454.307,-65.3800048828125
454.317,-59.9900016784668
454.327,-49.310001373291
454.337,-23.2000007629395
454.347,-5.35000038146973
454.357,-8.47000026702881
454.367,-18.0900001525879
454.377,-6.19000005722046
454.387,-2.17000007629395
454.397,2.03000020980835
454.406,44.0300025939941
454.416,73.9900054931641
454.426,76.8600006103516
454.436,85.5000076293945
454.446,91.3100051879883
454.456,64.7800064086914
454.466,31.8800010681152
454.476,11.4400005340576
454.486,13.8200006484985
454.496,-38.7100028991699
454.506,-126.630004882812
454.516,-179.720001220703
454.526,-140.139999389648
454.536,-122.640007019043
454.546,-50.1500015258789
454.556,-2.10000014305115
454.566,3.95000028610229
454.576,-24.5300006866455
454.586,2.83000016212463
454.596,47.8800010681152
454.6,-59.5000038146973
454.61,-67.8300018310547
454.62,-87.4600067138672
454.63,-132.440002441406
454.64,-172.230010986328
454.65,-135.270004272461
454.66,-62.120002746582
454.67,6.37000036239624
454.68,13.4400005340576
454.69,-31.1500015258789
454.7,-46.2300033569336
454.71,-41.1600036621094
454.72,-40.7400016784668
454.73,-52.7100028991699
454.74,-22.1500015258789
454.75,52.5300025939941
454.758,73.6000061035156
454.768,88.3000030517578
454.778,150.390014648438
454.788,209.300003051758
454.798,249.480010986328
454.808,184.480010986328
454.818,41.8200035095215
454.828,-240.800018310547
454.838,-409.570007324219
454.848,-484.330017089844
454.858,-410.090026855469
454.868,-370.650024414062
454.878,-348.840026855469
454.888,-296.240020751953
454.898,-271.630004882812
454.908,-172.650009155273
454.918,-50.8500022888184
454.928,-8.36000061035156
454.938,-40.0700035095215
454.948,-19.1100006103516
454.957,15.2900009155273
454.967,35.0300025939941
454.977,29.1500015258789
454.987,21.1400012969971
454.997,-32.4099998474121
455.007,-83.120002746582
455.017,-143.600006103516
455.027,-181.790008544922
455.037,-188.580001831055
455.047,-124.320007324219
455.057,-17.9900016784668
455.067,131.389999389648
455.077,241.010009765625
455.087,321.300018310547
455.097,357.940002441406
455.107,391.090026855469
455.117,389.440032958984
455.127,406.240020751953
455.137,423.710021972656
455.147,461.230010986328
455.156,486.740020751953
455.166,507.880035400391
455.176,506.590026855469
455.186,478.730010986328
455.196,450.870025634766
455.206,419.650024414062
455.216,347.550018310547
455.226,258.400024414062
455.236,123.020004272461
455.246,-30.6900005340576
455.256,-125.470008850098
455.266,-187.910003662109
455.276,-226.410003662109
455.286,-229.280014038086
455.296,-195.93000793457
455.306,-141.050003051758
455.316,-76.7200012207031
455.326,-13.6800003051758
455.336,27.0900020599365
455.346,51.8300018310547
455.35,-50.3600006103516
455.36,-77.4500045776367
455.37,-98.5600051879883
455.38,-106.820007324219
455.39,-114.480003356934
455.4,-97.1900024414062
455.41,-71.8500061035156
455.42,-31.7800006866455
455.43,-6.58000040054321
455.44,15.5400009155273
455.45,49.6600036621094
455.46,74.0600051879883
455.47,67.620002746582
455.48,54.9100036621094
455.49,28.6600017547607
455.5,5.32000017166138
455.508,-20.0900001525879
455.518,-50.8200035095215
455.528,-74.3400039672852
455.538,-72.5500030517578
455.548,-56.0700035095215
455.558,-13.1600008010864
455.568,17.0100002288818
455.578,51.8300018310547
455.588,92.3300018310547
455.598,122.43000793457
455.608,138.670013427734
455.618,132.93000793457
455.628,129.220001220703
455.638,109.76000213623
455.648,83.7900009155273
455.658,55.7200012207031
455.668,14.1000003814697
455.678,-22.1200008392334
455.688,-34.5400009155273
455.698,-46.5800018310547
455.707,-55.5400009155273
455.717,-57.7500038146973
455.727,-37.3400001525879
455.737,-17.3600006103516
455.747,2.38000011444092
455.757,25.0200004577637
455.767,23.9700012207031
455.777,23.9000015258789
455.787,32.8300018310547
455.797,27.6500015258789
455.807,11.8600006103516
455.817,17.25
455.827,14.7000007629395
455.837,15.7100009918213
455.847,31.6400012969971
455.857,32.9700012207031
455.867,33.9099998474121
455.877,36.0100021362305
455.887,35.9400024414062
455.897,16.1700000762939
455.906,-11.3700008392334
455.916,-28.8400020599365
455.926,-38.9200019836426
455.936,-49.560001373291
455.946,-53.7200012207031
455.956,-48.5400009155273
455.966,-30.1000022888184
455.976,11.9700002670288
455.986,28.4900016784668
455.996,29.0100021362305
456.006,41.3000030517578
456.016,42.4500007629395
456.026,39.370002746582
456.036,44.3800010681152
456.046,38.1500015258789
456.056,9.41000080108643
456.066,14.5900011062622
456.076,13.8900003433228
456.086,-4.69000005722046
456.096,-0.870000064373016
456.1,-12.4900007247925
456.11,-13.4700002670288
456.12,-5.18000030517578
456.13,-10.0800008773804
456.14,-8.36000061035156
456.15,-3.15000009536743
456.16,-15.6100006103516
456.17,-10.1500005722046
456.18,12.8800010681152
456.19,4.41000032424927
456.2,-3.67000007629395
456.21,-2.41000008583069
456.22,-16.1300010681152
456.23,-23.310001373291
456.24,0.0300000011920929
456.25,-6.72000026702881
456.258,-22.5400009155273
456.268,-12.8800010681152
456.278,-10.1100006103516
456.288,-13.2300004959106
456.298,-2.52000021934509
456.308,-12.2500009536743
456.318,-19.5300006866455
456.328,-0.450000017881393
456.338,4.51000022888184
456.348,9.34000015258789
456.358,28.310001373291
456.368,33.9099998474121
456.378,28.1700019836426
456.388,30.5900020599365
456.398,5.14000034332275
456.408,-25.8300018310547
456.418,-20.5100002288818
456.428,-24.0800018310547
456.438,-42.3800010681152
456.448,-28.560001373291
456.457,-22.0500011444092
456.467,-21.7000007629395
456.477,4.16000032424927
456.487,11.1600008010864
456.497,4.65000009536743
456.507,10.460000038147
456.517,2.10000014305115
456.527,-3.32000017166138
456.537,2.87000012397766
456.547,-12.7400007247925
456.557,-28.3800010681152
456.567,-10.9900007247925
456.577,-14.9800004959106
456.587,-13.5800008773804
456.597,-1.08000004291534
456.607,-6.33000040054321
456.617,1.05000007152557
456.627,24.8500003814697
456.637,17.5700016021729
456.647,5.8100004196167
456.652,9.6200008392334
456.662,5.32000017166138
456.672,7.98000049591064
456.682,-13.0900001525879
456.692,-16.1700000762939
456.702,-8.92000007629395
456.712,-18.2700004577637
456.722,-13.3000001907349
456.732,-16.060001373291
456.742,-41.8600006103516
456.752,-35.4900016784668
456.762,-18.5100002288818
456.772,-14.0000009536743
456.782,7.91000032424927
456.792,19.4200000762939
456.802,15.0500011444092
456.809,29.2200012207031
456.819,30.6200008392334
456.829,11.3700008392334
456.839,15.8200006484985
456.849,13.1600008010864
456.859,2.03000020980835
456.869,3.01000022888184
456.879,-1.6100001335144
456.889,-10.2200002670288
456.899,12.1400003433228
456.909,26.8800010681152
456.919,33.1100006103516
456.929,52.1100006103516
456.939,44.7600021362305
456.949,29.1200008392334
456.959,8.99000072479248
456.969,-27.7900009155273
456.979,-36.2200012207031
456.989,-37.8300018310547
456.999,-53.8600044250488
457.008,-37.1300010681152
457.018,-9.48000049591064
457.028,-2.34000015258789
457.038,15.7800006866455
457.048,25.0200004577637
457.058,7.49000024795532
457.068,9.66000080108643
457.078,4.72000026702881
457.088,-16.1000003814697
457.098,-28.2800006866455
457.108,-32.5100021362305
457.118,-45.9200019836426
457.128,-40.3500022888184
457.138,-32.7200012207031
457.148,-38.9200019836426
457.158,-24.0100002288818
457.168,-19.4600009918213
457.178,-29.1900005340576
457.188,-24.810001373291
457.198,-14.8000011444092
457.207,-24.8800010681152
457.217,-9.97000026702881
457.227,9.76000022888184
457.237,26.1800003051758
457.247,58.7600021362305
457.257,82.6700057983398
457.267,93.4100036621094
457.277,110.210006713867
457.287,114.660003662109
457.297,100.940002441406
457.307,78.9900054931641
457.317,80.0800018310547
457.327,65.0300064086914
457.337,58.9400024414062
457.347,54.7700042724609
457.357,47.6700019836426
457.367,57.680004119873
457.377,74.9300003051758
457.387,71.890007019043
457.397,63.9800033569336
457.402,18.9000015258789
457.412,21.9100017547607
457.422,43.6100006103516
457.432,77.3100051879883
457.442,104.650001525879
457.452,129.150009155273
457.462,139.050003051758
457.472,115.040008544922
457.482,96.7000045776367
457.492,63.1700019836426
457.502,14.7000007629395
457.512,-10.3900003433228
457.522,-8.07999992370605
457.532,-12.1100006103516
457.542,-0.840000033378601
457.552,40.0400009155273
457.559,77.1700057983398
457.569,94.8100051879883
457.579,109.76000213623
457.589,113.050003051758
457.599,72.7300033569336
457.609,9.17000007629395
457.619,-48.0200004577637
457.629,-124.740005493164
457.639,-206.570007324219
457.649,-255.220016479492
457.659,-272.400024414062
457.669,-317.060028076172
457.679,-357.030029296875
457.689,-373.100006103516
457.699,-368.860015869141
457.709,-353.390014648438
457.719,-346.080017089844
457.729,-321.960021972656
457.739,-297.880004882812
457.749,-275.380004882812
457.758,-239.920013427734
457.768,-211.330017089844
457.778,-191.240005493164
457.788,-146.300003051758
457.798,-93.2700042724609
457.808,-48.3300018310547
457.818,-17.9900016784668
457.828,4.23000001907349
457.838,29.8900012969971
457.848,50.680004119873
457.858,32.8300018310547
457.868,19.6000003814697
457.878,18.8300018310547
457.888,26.4600009918213
457.898,29.0800018310547
457.908,55.4700012207031
457.918,95.6900024414062
457.928,114.940002441406
457.938,137.300003051758
457.948,145.18000793457
457.957,147.100006103516
457.967,126.140007019043
457.977,80.7400054931641
457.987,42.1000022888184
457.997,12.7700004577637
458.007,-29.2600021362305
458.017,-69.7900009155273
458.027,-85.2200012207031
458.037,-87.5300064086914
458.047,-85.120002746582
458.057,-89.2500076293945
458.067,-99.120002746582
458.077,-124.210006713867
458.087,-148.470001220703
458.097,-172.93000793457
458.107,-193.760009765625
458.117,-213.810012817383
458.127,-205.550003051758
458.137,-192.710006713867
458.147,-163.200012207031
458.152,9.97000026702881
458.162,-0.0700000002980232
458.172,-22.2600002288818
458.182,-30.9000015258789
458.192,-39.6500015258789
458.202,-74.0900039672852
458.212,-100.830001831055
458.222,-120.01000213623
458.232,-114.550003051758
458.242,-99.2600021362305
458.252,-94.2900009155273
458.262,-93.9700012207031
458.272,-74.6900024414062
458.282,-47.560001373291
458.292,-35.8400001525879
458.302,-40.810001373291
458.309,-33.5300025939941
458.319,-3.74000024795532
458.329,22.7800006866455
458.339,23.060001373291
458.349,25.2700004577637
458.359,34.0200004577637
458.369,31.8800010681152
458.379,2.76000022888184
458.389,-42.3500022888184
458.399,-56.6300010681152
458.409,-62.7200012207031
458.419,-75.7000045776367
458.429,-103.040008544922
458.439,-133.279998779297
458.449,-117.42000579834
458.459,-83.4000015258789
458.469,-55.8200035095215
458.479,-37.7300033569336
458.489,-31.3900012969971
458.499,-8.47000026702881
458.508,16.5900001525879
458.518,35.2100028991699
458.528,27.6800022125244
458.538,24.0400009155273
458.548,29.9200019836426
458.558,27.5400009155273
458.568,23.480001449585
458.578,7.10000038146973
458.588,-12.3900003433228
458.598,-11.7600002288818
458.608,6.40000009536743
458.618,26.3200016021729
458.628,40.9800033569336
458.638,67.7900009155273
458.648,78.8500061035156
458.658,96.4900054931641
458.668,132.230010986328
458.678,166.880004882812
458.688,201.980010986328
458.698,212.550003051758
458.707,223.890014648438
458.717,232.190017700195
458.727,226.59001159668
458.737,181.400009155273
458.747,112.490005493164
458.757,47.6000022888184
458.767,0.770000040531158
458.777,-22.5400009155273
458.787,-35.3800010681152
458.797,-58.6600036621094
458.807,-68.9800033569336
458.817,-61.9500045776367
458.827,-39.2700004577637
458.837,-25.5800018310547
458.847,-28.2800006866455
458.857,0.350000023841858
458.867,47.8400039672852
458.877,66.25
458.887,94.0100021362305
458.897,144.230010986328
458.902,85.5700073242188
458.912,31.9200019836426
458.922,-34.4700012207031
458.932,-96.7700042724609
458.942,-142.620010375977
458.952,-164.950012207031
458.962,-155.990005493164
458.972,-143.360000610352
458.982,-116.720008850098
458.992,-104.300003051758
459.002,-64.9200057983398
459.012,-10.5300006866455
459.022,33.8800010681152
459.032,73.1500015258789
459.042,63.1400032043457
459.052,25.5100021362305
459.059,-4.79000043869019
459.069,-30.4100017547607
459.079,-65.5500030517578
459.089,-96.9500045776367
459.099,-105.380004882812
459.109,-82.7400054931641
459.119,-42.5200004577637
459.129,11.0900001525879
459.139,46.5100021362305
459.149,98.0700073242188
459.159,171.250015258789
459.169,208.420013427734
459.179,208.18000793457
459.189,169.43000793457
459.199,102.720001220703
459.209,28.8700008392334
459.219,-37.2700004577637
459.229,-90.3300018310547
459.239,-155.5
459.249,-199.920013427734
459.258,-205.730010986328
459.268,-182.240005493164
459.278,-155.960006713867
459.288,-141.68000793457
459.298,-141.990005493164
459.308,-110.140007019043
459.318,-62.4400024414062
459.328,-31.1100006103516
459.338,-22.8200016021729
459.348,-22.2900009155273
459.358,-30.480001449585
459.368,1.54000008106232
459.378,48.3300018310547
459.388,66.0400009155273
459.398,62.2600021362305
459.408,71.5400009155273
459.418,94.1500015258789
459.428,112.240005493164
459.438,112.490005493164
459.448,80.1500015258789
459.457,37.060001373291
459.467,9.66000080108643
459.477,-12.8400001525879
459.487,-53.2700042724609
459.497,-101.570007324219
459.507,-160.720001220703
459.517,-190.640014648438
459.527,-182.560012817383
459.537,-163.130004882812
459.547,-139.93000793457
459.557,-108.220008850098
459.567,-71.0800018310547
459.577,-22.1200008392334
459.587,12.9500007629395
459.597,30.3400020599365
459.607,49.7300033569336
459.617,71.9200057983398
459.627,88.5100021362305
459.637,95.7200012207031
459.647,86.9000015258789
459.651,-11.6900005340576
459.661,-43.5400009155273
459.671,-64.0100021362305
459.681,-72.0300064086914
459.691,-78.0800018310547
459.701,-84.3100051879883
459.711,-80.2200012207031
459.721,-42.310001373291
459.731,-8.1200008392334
459.741,9.24000072479248
459.751,18.2000007629395
459.761,10.9200000762939
459.771,13.9300003051758
459.781,26.0700016021729
459.791,27.230001449585
459.801,23.310001373291
459.809,12.9500007629395
459.819,23.3800010681152
459.829,46.3400039672852
459.839,45.6000022888184
459.849,14.9400005340576
459.859,-23.3400020599365
459.869,-56.0700035095215
459.879,-96.5300064086914
459.889,-147.170013427734
459.899,-212.380004882812
459.909,-272.540008544922
459.919,-296.240020751953
459.929,-304.640014648438
459.939,-314.050018310547
459.949,-325.320007324219
459.959,-305.480010986328
459.969,-268.690002441406
459.979,-221.130004882812
459.989,-167.120010375977
459.999,-129.920013427734
460.008,-87.5000076293945
460.018,-36.8900032043457
460.028,-0.770000040531158
460.038,11.7600002288818
460.048,6.51000022888184
460.058,0.21000000834465
460.068,3.78000020980835
460.078,17.5300006866455
460.088,32.4800033569336
460.098,27.0900020599365
460.108,36.8500022888184
460.118,59.9500045776367
460.128,83.3000030517578
460.138,89.4200057983398
460.148,80.5300064086914
460.158,79.1700057983398
460.168,79.3800048828125
460.178,83.5400009155273
460.188,73.9900054931641
460.198,61.810001373291
460.207,42.0300025939941
460.217,39.2300033569336
460.227,36.6400032043457
460.237,24.8800010681152
460.247,17.9900016784668
460.257,9.17000007629395
460.267,3.67000007629395
460.277,-6.72000026702881
460.287,-19.3900012969971
460.297,-32.7600021362305
460.307,-45.0800018310547
460.317,-48.1600036621094
460.327,-41.6800003051758
460.337,-34.4000015258789
460.347,-30.060001373291
460.357,-20.3700008392334
460.367,2.69000005722046
460.377,27.1200008392334
460.387,44.1000022888184
460.397,58.5500030517578
460.4,30.1700019836426
460.41,11.0900001525879
460.42,0.310000002384186
460.43,-26.7000007629395
460.44,-53.4800033569336
460.45,-91.7300033569336
460.46,-120.220008850098
460.47,-140.450012207031
460.48,-150.25
460.49,-147.800003051758
460.5,-119.730003356934
460.51,-73.25
460.52,-29.5700016021729
460.53,15.5400009155273
460.54,57.5000038146973
460.55,97.7900009155273
460.559,111.330001831055
460.569,96.0000076293945
460.579,57.2200012207031
460.589,41.6100006103516
460.599,15.5000009536743
460.609,-14.3800010681152
460.619,-47.5300025939941
460.629,-47.7400016784668
460.639,-21.9400005340576
460.649,-14.8000011444092
460.659,-15.5000009536743
460.669,-5.14000034332275
460.679,0.800000011920929
460.689,-10.4300003051758
460.699,-33.7000007629395
460.709,-59.9500045776367
460.719,-59.7400016784668
460.729,-56.7300033569336
460.739,-50.9900016784668
460.749,-22.0500011444092
460.758,18.6900005340576
460.768,48.3300018310547
460.778,69.120002746582
460.788,83.0900039672852
460.798,103.490005493164
460.808,100.900001525879
460.818,67.3000030517578
460.828,28.310001373291
460.838,1.82000005245209
460.848,-23.5900020599365
460.858,-58.8000030517578
460.868,-82.3500061035156
460.878,-88.4400024414062
460.888,-76.6800003051758
460.898,-69.4700012207031
460.908,-69.6100006103516
460.918,-51.1300010681152
460.928,-27.3000011444092
460.938,-6.72000026702881
460.948,9.24000072479248
460.956,20.8200016021729
460.966,32.6900024414062
460.976,29.5400009155273
460.986,21.0700016021729
460.996,24.6400012969971
461.006,22.9900016784668
461.016,3.88000011444092
461.026,-17.2900009155273
461.036,-15.3600006103516
461.046,-26.8400020599365
461.056,-54.3200035095215
461.066,-73.8100051879883
461.076,-61.0400047302246
461.086,-39.6900024414062
461.096,-22.2200012207031
461.106,4.13000011444092
461.116,28.0000019073486
461.126,50.8500022888184
461.136,50.5000038146973
461.146,40.3500022888184
461.15,-43.4300003051758
461.16,-55.370002746582
461.17,-65.0300064086914
461.18,-41.7500038146973
461.19,-20.8600006103516
461.2,-5.42000007629395
461.21,6.02000045776367
461.22,30.9000015258789
461.23,46.4100036621094
461.24,47.9500007629395
461.25,44.5500030517578
461.26,41.1600036621094
461.27,37.620002746582
461.28,26.4600009918213
461.29,17.9200000762939
461.3,13.5100002288818
461.309,-8.43000030517578
461.319,-16.8700008392334
461.329,-0.730000019073486
461.339,5.28000020980835
461.349,3.15000009536743
461.359,10.7400007247925
461.369,27.4400005340576
461.379,29.0800018310547
461.389,3.60000014305115
461.399,-10.3900003433228
461.409,-21.7000007629395
461.419,-41.5100021362305
461.429,-45.4300003051758
461.439,-25.2700004577637
461.449,-12.0000009536743
461.459,-15.5400009155273
461.469,1.82000005245209
461.479,20.5800018310547
461.489,7.03000020980835
461.499,-14.3500003814697
461.508,-2.90000009536743
461.518,-0.350000023841858
461.528,-13.1600008010864
461.538,-7.3100004196167
461.548,9.8700008392334
461.558,5.63000011444092
461.568,-6.33000040054321
461.578,5.53000020980835
461.588,18.230001449585
461.598,9.48000049591064
461.608,0.800000011920929
461.618,7.84000015258789
461.628,9.10000038146973
461.638,-6.79000043869019
461.648,-2.55000019073486
461.658,8.15000057220459
461.668,0.0300000011920929
461.678,7.77000045776367
461.688,25.1300010681152
461.698,12.8100004196167
461.706,-4.93000030517578
461.716,2.97000002861023
461.726,6.51000022888184
461.736,8.07999992370605
461.746,10.3200006484985
461.756,11.5100002288818
461.766,20.5800018310547
461.776,26.8400020599365
461.786,20.5100002288818
461.796,19.2100009918213
461.806,17.8500003814697
461.816,20.9300003051758
461.826,26.9100017547607
461.836,25.3400020599365
461.846,20.0200004577637
461.856,23.8000011444092
461.866,26.3500003814697
461.876,6.75000047683716
461.886,-1.85000014305115
461.896,10.0400009155273
461.9,4.30000019073486
461.91,14.9100008010864
461.92,12.8100004196167
461.93,7.45000028610229
461.94,10.5300006866455
461.95,23.9700012207031
461.96,29.2600021362305
461.97,24.1100006103516
461.98,29.9600009918213
461.99,24.2900009155273
462,23.2400016784668
462.01,41.6800003051758
462.02,36.4300003051758
462.03,10.3200006484985
462.04,2.80000019073486
462.05,3.1800000667572
462.059,0.21000000834465
462.069,0.980000019073486
462.079,6.79000043869019
462.089,7.84000015258789
462.099,10.3200006484985
462.109,5
462.119,-2.52000021934509
462.129,4.09000015258789
462.139,9.59000015258789
462.149,16.5200004577637
462.159,27.7200012207031
462.169,45.5700035095215
462.179,67.0900039672852
462.189,69.6800003051758
462.199,63.8400039672852
462.209,52.0400009155273
462.219,26.1400012969971
462.229,8.64000034332275
462.239,-0.630000054836273
462.249,-3.39000010490417
462.259,-2.80000019073486
462.269,6.05000019073486
462.279,22.3300018310547
462.289,25.3700008392334
462.299,23.060001373291
462.309,26.810001373291
462.319,24.5000019073486
462.329,26.560001373291
462.339,38.4600028991699
462.349,44.8000030517578
462.359,52.1500015258789
462.369,57.8500022888184
462.379,54.2800025939941
462.389,43.4000015258789
462.399,27.6800022125244
462.409,31.5000019073486
462.419,33.9500007629395
462.429,41.6100006103516
462.439,57.680004119873
462.449,42.7000007629395
462.458,21.8700008392334
462.468,1.82000005245209
462.478,-34.2300033569336
462.488,-45.6000022888184
462.498,-46.2000007629395
462.508,-41.0900001525879
462.518,-20.3300018310547
462.528,2.24000000953674
462.538,19.4900016784668
462.548,40.6300010681152
462.558,50.8900032043457
462.568,50.680004119873
462.578,49.4200019836426
462.588,52.6700019836426
462.598,73.9500045776367
462.608,83.1600036621094
462.618,90.4400024414062
462.628,93.5200042724609
462.638,74.8600006103516
462.648,61.0000038146973
462.652,28.9100017547607
462.662,45.0100021362305
462.672,54.180004119873
462.682,52.7100028991699
462.692,59.3900032043457
462.702,47.9100036621094
462.712,15.6400003433228
462.722,-9.38000011444092
462.732,-49.5900039672852
462.742,-88.4100036621094
462.752,-108.110008239746
462.762,-137.130004882812
462.772,-127.330009460449
462.782,-98.4200057983398
462.792,-60.4800033569336
462.802,-12.1100006103516
462.811,31.4600009918213
462.821,61.2800025939941
462.831,84.3100051879883
462.841,101.640007019043
462.851,100.520004272461
462.861,88.2700042724609
462.871,61.3200035095215
462.881,21.9100017547607
462.891,-28.9400005340576
462.901,-83.8600006103516
462.911,-119.520004272461
462.921,-158.130004882812
462.931,-172.580001831055
462.941,-175.84001159668
462.951,-187.950012207031
462.961,-173.630004882812
462.971,-122.710006713867
462.981,-80.0800018310547
462.991,-39.2000007629395
463.001,1.50000011920929
463.009,34.75
463.019,58.8300018310547
463.029,90.4000015258789
463.039,107.520004272461
463.049,112.380004882812
463.059,145.490005493164
463.069,173.18000793457
463.079,184.240005493164
463.089,202.610015869141
463.099,206.150009155273
463.109,180.560012817383
463.119,168.800003051758
463.129,144.270004272461
463.139,73.6700057983398
463.149,24.9200019836426
463.159,6.89000034332275
463.169,-30.7600021362305
463.179,-65.1700057983398
463.189,-79.5900039672852
463.199,-83.7200012207031
463.208,-54.5300025939941
463.218,-10.2200002670288
463.228,33
463.238,58.6900024414062
463.248,72.5200042724609
463.258,108.220008850098
463.268,131.320007324219
463.278,145.670013427734
463.288,158.970001220703
463.298,156.830001831055
463.308,156.830001831055
463.318,154.940002441406
463.328,130.620010375977
463.338,101.320007324219
463.348,92.890007019043
463.358,77.5200042724609
463.368,43.120002746582
463.378,11.2000007629395
463.388,-21.0000019073486
463.398,-29.6400012969971
463.402,5.74000024795532
463.412,15.5400009155273
463.422,12.7700004577637
463.432,13.5800008773804
463.442,22.0500011444092
463.452,17.1800003051758
463.462,-1.57000005245209
463.472,-23.1700019836426
463.482,-42.5200004577637
463.492,-39.4400024414062
463.502,-35.9800033569336
463.512,-31.2500019073486
463.522,-33.4200019836426
463.532,-26.980001449585
463.542,-8.61000061035156
463.552,21.0000019073486
463.561,29.5400009155273
463.571,37.1000022888184
463.581,54.3500022888184
463.591,49.8400039672852
463.601,38.9200019836426
463.611,34.5100021362305
463.621,17.8800010681152
463.631,9.90000057220459
463.641,19.560001373291
463.651,20.5400009155273
463.661,8.99000072479248
463.671,7.66000032424927
463.681,9.38000011444092
463.691,-0.100000001490116
463.701,-12.2800006866455
463.711,-25.7600021362305
463.721,-39.5500030517578
463.731,-52.7100028991699
463.741,-47.4900016784668
463.751,-33.7400016784668
463.759,-23.8300018310547
463.769,-15.7800006866455
463.779,0.800000011920929
463.789,18.6200008392334
463.799,39.4400024414062
463.809,58.5500030517578
463.819,74.7600021362305
463.829,71.5699996948242
463.839,66.0800018310547
463.849,67.5100021362305
463.859,59.2900009155273
463.869,45.1800003051758
463.879,22.1900005340576
463.889,17.6000003814697
463.899,14.4200010299683
463.909,12.6300010681152
463.919,12.2800006866455
463.929,13.7500009536743
463.939,15.3300008773804
463.949,9.13000011444092
463.958,11.7200002670288
463.968,8.47000026702881
463.978,-16.6599998474121
463.988,-54.2500038146973
463.998,-76.7900009155273
464.008,-85.5400009155273
464.018,-75.7000045776367
464.028,-45.9500007629395
464.038,-6.37000036239624
464.048,18.2700004577637
464.058,43.2200012207031
464.068,74.5100021362305
464.078,96.4600067138672
464.088,95.8600082397461
464.098,102.160003662109
464.108,123.970008850098
464.118,141.080001831055
464.128,143.570007324219
464.138,112.560005187988
464.148,69.0200042724609
464.153,17.2200012207031
464.163,5.1100001335144
464.173,29.0800018310547
464.183,49.1700019836426
464.193,76.7900009155273
464.203,125.050003051758
464.213,169.360000610352
464.223,228.270004272461
464.233,295.080017089844
464.243,311.880004882812
464.253,283.430023193359
464.263,242.160018920898
464.273,148.120010375977
464.283,54.6700019836426
464.293,-11.6500005722046
464.303,-58.3400039672852
464.311,-63.6600036621094
464.321,-43.7100028991699
464.331,-55.8600044250488
464.341,-62.0500030517578
464.351,-15.6800003051758
464.361,7.07000017166138
464.371,1.00999999046326
464.381,0.800000011920929
464.391,-6.58000040054321
464.401,2.17000007629395
464.411,26.1800003051758
464.421,12.9800004959106
464.431,-5.91000032424927
464.441,2.76000022888184
464.451,24.3900012969971
464.461,10.0100002288818
464.471,-11.2300004959106
464.481,-20.3000011444092
464.491,-36.1900024414062
464.501,-75.9800033569336
464.509,-136.5
464.519,-204.010009765625
464.529,-242.09001159668
464.539,-233.030014038086
464.549,-213.570007324219
464.559,-169.470001220703
464.569,-109.480003356934
464.579,-34.75
464.589,56.5900039672852
464.599,133.800003051758
464.609,169.920013427734
464.619,204.710006713867
464.629,234.780014038086
464.639,230.750015258789
464.649,206.780014038086
464.659,189.420013427734
464.669,172.060012817383
464.679,154.070007324219
464.689,130.300003051758
464.699,98.0000076293945
464.708,43.3300018310547
464.718,4.09000015258789
464.728,-17.2200012207031
464.738,-78.4700012207031
464.748,-150.710006713867
464.758,-181.860015869141
464.768,-163.410003662109
464.778,-99.2600021362305
464.788,-13.7900009155273
464.798,60.9700012207031
464.808,122.780006408691
464.818,164.150009155273
464.828,211.400009155273
464.838,249.760009765625
464.848,284.620025634766
464.858,307.160003662109
464.868,270.550018310547
464.878,187.880004882812
464.888,64.6399993896484
464.898,-39.0900001525879
464.902,-218.470016479492
464.912,-140.450012207031
464.922,-38.3200035095215
464.932,38.5
464.942,73.7100067138672
464.952,111.160003662109
464.962,146.190002441406
464.972,146.510009765625
464.982,112.17000579834
464.992,62.4000015258789
465.002,16.6900005340576
465.012,-6.6100001335144
465.022,-21.8700008392334
465.032,-21.0700016021729
465.042,-43.5700035095215
465.052,-55.8900032043457
465.061,-32.5500030517578
465.071,-25.6900005340576
465.081,-30.060001373291
465.091,-30.2000007629395
465.101,-32.2700004577637
465.111,-37.5200004577637
465.121,-23.2400016784668
465.131,-9.03000068664551
465.141,-5.77000045776367
465.151,13.4400005340576
465.161,49.0700035095215
465.171,60.6500015258789
465.181,79.5900039672852
465.191,96.1100082397461
465.201,102.440002441406
465.211,98.2400054931641
465.221,76.6800003051758
465.231,53.3400039672852
465.241,10.3600006103516
465.251,-7.91000032424927
465.259,-20.0900001525879
465.269,-41.6800003051758
465.279,-34.9300003051758
465.289,3.88000011444092
465.299,24.3600006103516
465.309,46.5800018310547
465.319,87.0800018310547
465.329,111.050003051758
465.339,110.210006713867
465.349,103.140007019043
465.359,76.8600006103516
465.369,15.7800006866455
465.379,-30.2000007629395
465.389,-79.5900039672852
465.399,-169.260009765625
465.409,-213.360015869141
465.419,-224.630004882812
465.429,-202.370010375977
465.439,-132.540008544922
465.449,-55.9600028991699
465.458,26.1100006103516
465.468,102.300003051758
465.478,165.480010986328
465.488,206.320007324219
465.498,208.320007324219
465.508,178.460006713867
465.518,152.880004882812
465.528,112.140007019043
465.538,64.9600067138672
465.548,7.70000028610229
465.558,-34.4000015258789
465.568,-42.4200019836426
465.578,-32.5100021362305
465.588,-6.26000022888184
465.598,14.6600008010864
465.608,35.4200019836426
465.618,56.8000030517578
465.628,78.6100006103516
465.638,93.9000015258789
465.648,73.6700057983398
465.652,-66.4600067138672
465.662,-61.4900016784668
465.672,-11.9700002670288
465.682,18.480001449585
465.692,36.9600028991699
465.702,57.1500015258789
465.712,38.7800025939941
465.722,0.310000002384186
465.732,-23.1000003814697
465.742,-52.9900016784668
465.752,-64.3600006103516
465.762,-52.3600006103516
465.772,-3.01000022888184
465.782,24.8500003814697
465.792,53.1300010681152
465.802,59.2500038146973
465.811,59.7400016784668
465.821,63.2800025939941
465.831,47.9100036621094
465.841,18.6200008392334
465.851,15.0800008773804
465.861,25.9000015258789
465.871,44.3400039672852
465.881,36.6100006103516
465.891,28.8000011444092
465.901,26.6000003814697
465.911,32.1300010681152
465.921,35.0300025939941
465.931,4.65000009536743
465.941,-20.6800003051758
465.951,-10.460000038147
465.961,9.38000011444092
465.971,26.8800010681152
465.981,29.5700016021729
465.991,23.1000003814697
466.001,4.51000022888184
466.009,18.4400005340576
466.019,19.2800006866455
466.029,4.51000022888184
466.039,-2.80000019073486
466.049,-8.71000003814697
466.059,-8.01000022888184
466.069,-6.8600001335144
466.079,-10.8500003814697
466.089,-20.0200004577637
466.099,-13.7500009536743
466.109,-6.09000015258789
466.119,3.57000017166138
466.129,13.8900003433228
466.139,10.7800006866455
466.149,4.76000022888184
466.159,13.5400009155273
466.169,27.1900005340576
466.179,25.3700008392334
466.189,31.8500022888184
466.199,33.0400009155273
466.208,21.980001449585
466.218,18.060001373291
466.228,15.7100009918213
466.238,9.13000011444092
466.248,9.0600004196167
466.258,16.5900001525879
466.268,16.9700012207031
466.278,16.9700012207031
466.288,24.5700016021729
466.298,33.1400032043457
466.308,32.0200004577637
466.318,31.3600006103516
466.328,10.2500009536743
466.338,-9.3100004196167
466.348,-22.0100002288818
466.358,-29.2600021362305
466.368,-26.4600009918213
466.378,-12.4900007247925
466.388,-12.5600004196167
466.398,1.29000008106232
466.402,51.2000007629395
466.412,48.4000015258789
466.422,58.6900024414062
466.432,35.2100028991699
466.442,30.5900020599365
466.452,32.5100021362305
466.462,22.1500015258789
466.472,13.8900003433228
466.482,6.51000022888184
466.492,-15.0100011825562
466.502,-26.8800010681152
466.512,-29.3600006103516
466.522,-42.4200019836426
466.532,-27.6500015258789
466.542,-5.32000017166138
466.552,-10.2500009536743
466.56,26.8400020599365
466.57,67.0900039672852
466.58,64.0500030517578
466.59,55.930004119873
466.6,64.3600006103516
466.61,51.8300018310547
466.62,28.1000003814697
466.63,15.9200010299683
466.64,-21.9100017547607
466.65,-44.5500030517578
466.66,-38.9900016784668
466.67,-43.0500030517578
466.68,-35.1700019836426
466.69,-20.230001449585
466.7,-16.5500011444092
466.71,3.92000007629395
466.72,27.7900009155273
466.73,22.5400009155273
466.74,31.7800006866455
466.75,42.7000007629395
466.759,32.7600021362305
466.769,34.8200035095215
466.779,46.0200004577637
466.789,40.4900016784668
466.799,35.4900016784668
466.809,37.2400016784668
466.819,8.53999996185303
466.829,-23.6600017547607
466.839,-37.3400001525879
466.849,-60.620002746582
466.859,-68.3500061035156
466.869,-50.7800025939941
466.879,-38.1100006103516
466.889,-13.0500001907349
466.899,-5.8100004196167
466.909,-11.9300003051758
466.919,2.59000015258789
466.929,12.7000007629395
466.939,5.35000038146973
466.949,4.44000005722046
466.958,-22.4300003051758
466.968,-18.7900009155273
466.978,-13.9300003051758
466.988,-43.7100028991699
466.998,-48.3300018310547
467.008,-40.9500007629395
467.018,-36.6800003051758
467.028,-20.6800003051758
467.038,-2.73000001907349
467.048,0.840000033378601
467.058,16.7600002288818
467.068,23.1300010681152
467.078,15.6800003051758
467.088,20.7500019073486
467.098,12.6000003814697
467.108,0.800000011920929
467.118,3.95000028610229
467.128,-2.38000011444092
467.138,-15.4700002670288
467.148,-10.2200002670288
467.153,-46.1300010681152
467.163,-51.0300025939941
467.173,-62.4400024414062
467.183,-75.6300048828125
467.193,-79.1700057983398
467.203,-81.4100036621094
467.213,-90.3000030517578
467.223,-107.900001525879
467.233,-109.440002441406
467.243,-107.17000579834
467.253,-113.710006713867
467.263,-104.860008239746
467.273,-95.4400024414062
467.283,-100.030006408691
467.293,-112.240005493164
467.303,-128.170013427734
467.31,-163.240005493164
467.32,-188.890014648438
467.33,-173.460006713867
467.34,-148.640014648438
467.35,-150.150009155273
467.36,-117.980003356934
467.37,-41.3300018310547
467.38,5.18000030517578
467.39,-25.1600017547607
467.4,-56.3800010681152
467.41,-63.310001373291
467.42,-76.1600036621094
467.43,-99.3300018310547
467.44,-110.460006713867
467.45,-91.0300064086914
467.46,-63.4900016784668
467.47,-0.910000026226044
467.48,56.560001373291
467.49,119.310005187988
467.5,199.250015258789
467.509,275.52001953125
467.519,298.370025634766
467.529,313.490020751953
467.539,343.280029296875
467.549,341.980010986328
467.559,324.690002441406
467.569,324.830017089844
467.579,319.720001220703
467.589,309.920013427734
467.599,312.550018310547
467.609,315.490020751953
467.619,309.710021972656
467.629,282.970001220703
467.639,280.100006103516
467.649,268.590026855469
467.659,245.310012817383
467.669,221.020004272461
467.679,197.290008544922
467.689,173.320007324219
467.699,123.230003356934
467.708,68.6700057983398
467.718,17.3600006103516
467.728,-32.6500015258789
467.738,-76.1600036621094
467.748,-127.750007629395
467.758,-158.900009155273
467.768,-183.150009155273
467.778,-224.170013427734
467.788,-218.890014648438
467.798,-212.34001159668
467.808,-196.170013427734
467.818,-146.610000610352
467.828,-80.9900054931641
467.838,-7.98000049591064
467.848,89.1800079345703
467.858,179.970001220703
467.868,251.02001953125
467.878,301.77001953125
467.888,320.490020751953
467.898,328.470001220703
467.902,109.270004272461
467.912,42.0300025939941
467.922,-23.1300010681152
467.932,-74.5500030517578
467.942,-112.980003356934
467.952,-139.020004272461
467.962,-161.560012817383
467.972,-152.600006103516
467.982,-131.25
467.992,-104.540008544922
468.002,-72.5200042724609
468.012,-19.8400001525879
468.022,34.2300033569336
468.032,80.3200073242188
468.042,126.140007019043
468.052,166.420013427734
468.06,218.500015258789
468.07,251.230010986328
468.08,259.140014648438
468.09,264.670013427734
468.1,270.900024414062
468.11,273.870025634766
468.12,274.5
468.13,253.500015258789
468.14,213.990005493164
468.15,192.600006103516
468.16,170.940002441406
468.17,130.200012207031
468.18,73.0800018310547
468.19,32.3000030517578
468.2,-5.28000020980835
468.21,-42.9800033569336
468.22,-60.370002746582
468.23,-81.8600006103516
468.24,-67.7200012207031
468.25,-54.1100044250488
468.259,-46.4400024414062
468.269,-43.6800003051758
468.279,-44.4100036621094
468.289,-30.1300010681152
468.299,-37.1700019836426
468.309,-24.810001373291
468.319,-19.2100009918213
468.329,-1.85000014305115
468.339,15.1500005722046
468.349,18.6500015258789
468.359,30.6600017547607
468.369,42.9100036621094
468.379,59.2500038146973
468.389,58.870002746582
468.399,48.8200035095215
468.409,50.430004119873
468.419,54.1100044250488
468.429,54.1100044250488
468.439,38.5300025939941
468.449,25.1600017547607
468.458,25.7900009155273
468.468,26.1100006103516
468.478,32.7200012207031
468.488,17.810001373291
468.498,8.22000026702881
468.508,5.39000034332275
468.518,9.0600004196167
468.528,13.5100002288818
468.538,0.730000019073486
468.548,3.1100001335144
468.558,14.4500007629395
468.568,25.8300018310547
468.578,45.2900009155273
468.588,49.1700019836426
468.598,43.4300003051758
468.608,42.9800033569336
468.618,50.5000038146973
468.628,62.0200042724609
468.638,46.620002746582
468.648,16.0300006866455
468.652,-36.6400032043457
468.662,-44.2400016784668
468.672,-34.3000030517578
468.682,-34.3000030517578
468.692,-51.2400016784668
468.702,-95.6900024414062
468.712,-140.450012207031
468.722,-164.640014648438
468.732,-177.550003051758
468.742,-164.290008544922
468.752,-151.900009155273
468.762,-138.810012817383
468.772,-98.0000076293945
468.782,-45.7100028991699
468.792,10.5000009536743
468.802,62.370002746582
468.81,83.3000030517578
468.82,87.0400009155273
468.83,101.290008544922
468.84,109.340003967285
468.85,125.750007629395
468.86,107.76000213623
468.87,77.2400054931641
468.88,65.7300033569336
468.89,78.4300003051758
468.9,115.640007019043
468.91,150.570007324219
468.92,167.400009155273
468.93,177.800003051758
468.94,197.960006713867
468.95,216.370010375977
468.96,231.310012817383
468.97,235.270004272461
468.98,217.490005493164
468.99,173.070007324219
469,145.770004272461
469.009,127.850006103516
469.019,114.520004272461
469.029,106.080001831055
469.039,85.3300018310547
469.049,69.5400009155273
469.059,73.25
469.069,84.3100051879883
469.079,94.390007019043
469.089,81.9000015258789
469.099,62.8600044250488
469.109,49.2100028991699
469.119,22.1900005340576
469.129,11.8300008773804
469.139,-25.4100017547607
469.149,-66.2200012207031
469.159,-79.5900039672852
469.169,-95.620002746582
469.179,-69.6500015258789
469.189,-27.9600009918213
469.199,17.8800010681152
469.208,53.4400024414062
469.218,88.8300018310547
469.228,122.080009460449
469.238,113.290008544922
469.248,76.370002746582
469.258,24.1100006103516
469.268,-66.2900009155273
469.278,-137.900009155273
469.288,-215.880004882812
469.298,-291.340026855469
469.308,-312.130004882812
469.318,-324.590026855469
469.328,-302.710021972656
469.338,-242.580017089844
469.348,-168.170013427734
469.358,-71.6800003051758
469.368,14.6600008010864
469.378,90.890007019043
469.388,161.310012817383
469.398,216.260009765625
469.402,151.690002441406
469.412,90.2600021362305
469.422,36.75
469.432,-26.1800003051758
469.442,-91.3800048828125
469.452,-142.59001159668
469.462,-169.750015258789
469.472,-171.110000610352
469.482,-155.050003051758
469.492,-139.68000793457
469.502,-124.250007629395
469.512,-102.410003662109
469.522,-90.4700012207031
469.532,-71.2200012207031
469.542,-48.0900039672852
469.552,-41.2600021362305
469.56,-39.5100021362305
469.57,-37.870002746582
469.58,-22.7100009918213
469.59,0.420000016689301
469.6,25.6500015258789
469.61,36.6800003051758
469.62,25.5500011444092
469.63,26.4900016784668
469.64,39.2000007629395
469.65,45.4300003051758
469.66,44.4500007629395
469.67,40.6300010681152
469.68,41.4400024414062
469.69,57.2200012207031
469.7,75.9800033569336
469.71,94.0100021362305
469.72,106.190002441406
469.73,112.940002441406
469.74,129.320007324219
469.75,151.200012207031
469.759,166.880004882812
469.769,178.600006103516
469.779,184.380004882812
469.789,190.400009155273
469.799,177.620010375977
469.809,145.110000610352
469.819,88.2300033569336
469.829,5.88000011444092
469.839,-76.3000030517578
469.849,-115.040008544922
469.859,-144.860000610352
469.869,-144.650009155273
469.879,-141.610000610352
469.889,-126.490005493164
469.899,-88.1300048828125
469.909,-49.6300010681152
469.919,-11.6500005722046
469.929,22.0800018310547
469.939,44.060001373291
469.949,66.0800018310547
469.958,98.8400039672852
469.968,134.920013427734
469.978,163.240005493164
469.988,172.130004882812
469.998,181.190002441406
470.008,152.140014648438
470.018,112.350006103516
470.028,69.9300003051758
470.038,10.9900007247925
470.048,-38.7400016784668
470.058,-92.6100006103516
470.068,-160.960006713867
470.078,-198.970016479492
470.088,-228.370010375977
470.098,-243.460006713867
470.108,-249.060012817383
470.118,-215.770004272461
470.128,-149.130004882812
470.138,-67.7600021362305
470.148,23.8000011444092
470.152,256.230010986328
470.162,252.84001159668
470.172,249.720016479492
470.182,252.450012207031
470.192,250.630004882812
470.202,238.350006103516
470.212,225.780014038086
470.222,218.080017089844
470.232,218.080017089844
470.242,221.130004882812
470.252,210.140014648438
470.262,201.18000793457
470.272,187.880004882812
470.282,149.170013427734
470.292,85.120002746582
470.302,-3.4300000667572
470.31,-78.5400009155273
470.32,-106.92000579834
470.33,-135.730010986328
470.34,-125.890007019043
470.35,-109.620002746582
470.36,-70.9100036621094
470.37,7.66000032424927
470.38,71.6800003051758
470.39,126.770004272461
470.4,151.970001220703
470.41,172.760009765625
470.42,187.980010986328
470.43,210.420013427734
470.44,184.900009155273
470.45,138.490005493164
470.46,93.9700012207031
470.47,54.0400009155273
470.48,18.3400001525879
470.49,-3.99000024795532
470.5,-23.5200004577637
470.509,-57.0500030517578
470.519,-69.5400009155273
470.529,-49.6300010681152
470.539,-36.8900032043457
470.549,-13.1600008010864
470.559,7.28000020980835
470.569,25.5800018310547
470.579,68.7700042724609
470.589,117.67000579834
470.599,146.050003051758
470.609,142.550003051758
470.619,144.440002441406
470.629,144.060012817383
470.639,121.130004882812
470.649,91.5200042724609
470.659,43.3300018310547
470.669,-9.59000015258789
470.679,-37.870002746582
470.689,-58.6900024414062
470.699,-94.4300079345703
470.704,-112.17000579834
470.714,-102.270004272461
470.724,-77.0300064086914
470.734,-28.310001373291
470.744,19.3900012969971
470.754,52.2900009155273
470.764,70.3100051879883
470.774,87.7400054931641
470.784,102.060005187988
470.794,115.080001831055
470.804,98.2100067138672
470.814,67.5100021362305
470.824,47.0400009155273
470.834,23.9400005340576
470.844,-3.29000020027161
470.854,-33.1800003051758
470.861,-44.4100036621094
470.871,-40.7700004577637
470.881,-23.4100017547607
470.891,-16.5200004577637
470.901,-0.280000001192093
470.911,19.25
470.921,39.8600006103516
470.931,47.1400032043457
470.941,46.6900024414062
470.951,51.5500030517578
470.961,46.1300010681152
470.971,30.9000015258789
470.981,6.12000036239624
470.991,-10.6700000762939
471.001,-18.1300010681152
471.011,-15.4000005722046
471.021,-18.1300010681152
471.031,-20.5800018310547
471.041,-11.6500005722046
471.051,-19.1800003051758
471.06,-37.0300025939941
471.07,-55.1600036621094
471.08,-68.9100036621094
471.09,-74.1600036621094
471.1,-91.2400054931641
471.11,-117.910003662109
471.12,-141.360000610352
471.13,-127.43000793457
471.14,-114.590003967285
471.15,-119.910003662109
471.16,-104.93000793457
471.17,-105.840003967285
471.18,-121.900009155273
471.19,-134.290008544922
471.2,-119.350006103516
471.21,-104.68000793457
471.22,-70.5600051879883
471.23,-44.310001373291
471.24,-18.1300010681152
471.25,1.6100001335144
471.259,10.9900007247925
471.269,8.36000061035156
471.279,12.9500007629395
471.289,19.1400012969971
471.299,9.34000015258789
471.309,-1.54000008106232
471.319,0.380000025033951
471.329,-0.310000002384186
471.339,-7.84000015258789
471.349,0.140000000596046
471.359,14.2800006866455
471.369,41.3300018310547
471.379,68.0699996948242
471.389,109.300003051758
471.399,140.630004882812
471.409,157.010009765625
471.419,144.900009155273
471.429,117.18000793457
471.439,85.0500030517578
471.449,43.5700035095215
471.453,-117.42000579834
471.463,-131.210006713867
471.473,-126.100006103516
471.483,-126.100006103516
471.493,-106.01000213623
471.503,-92.2900009155273
471.513,-73.4300003051758
471.523,-57.680004119873
471.533,-66.1100006103516
471.543,-90.8600006103516
471.553,-110.110008239746
471.563,-135.240005493164
471.573,-162.500015258789
471.583,-188.610015869141
471.593,-196.560012817383
471.603,-177.060012817383
471.611,-160.400009155273
471.621,-143.25
471.631,-117.350006103516
471.641,-58.5200042724609
471.651,-8.57000064849854
471.661,17.9900016784668
471.671,18.8600006103516
471.681,9.66000080108643
471.691,15.7800006866455
471.701,17.6700000762939
471.711,6.68000030517578
471.721,5.84000015258789
471.731,14.6600008010864
471.741,26.3900012969971
471.751,38.9900016784668
471.761,33.5300025939941
471.771,28.6300010681152
471.781,22.5400009155273
471.791,22.8900012969971
471.801,18.480001449585
471.81,16.8299999237061
471.82,26.1100006103516
471.83,38.4300003051758
471.84,66.8500061035156
471.85,87.2900009155273
471.86,110.910003662109
471.87,126.870002746582
471.88,126.42000579834
471.89,132.370010375977
471.9,135.550003051758
471.91,144.550003051758
471.92,154.980010986328
471.93,170.030014038086
471.94,174.09001159668
471.95,177.030014038086
471.96,173.420013427734
471.97,142.480010986328
471.98,101.500007629395
471.99,43.2600021362305
472,-15.7500009536743
472.009,-85.9600067138672
472.019,-156.760009765625
472.029,-215.880004882812
472.039,-262.180023193359
472.049,-258.470001220703
472.059,-240.940017700195
472.069,-217.520004272461
472.079,-175.980010986328
472.089,-121.130004882812
472.099,-67.5800018310547
472.109,-30.3800010681152
472.119,12.1400003433228
472.129,47.7700004577637
472.139,73.8500061035156
472.149,86.1300048828125
472.159,90.3300018310547
472.169,71.0500030517578
472.179,59.180004119873
472.189,49.3800010681152
472.199,22.1200008392334
472.203,-119.800003051758
472.213,-148.710006713867
472.223,-165.34001159668
472.233,-177.830001831055
472.243,-203.450012207031
472.253,-211.920013427734
472.263,-200.580017089844
472.273,-200.200012207031
472.283,-207.720016479492
472.293,-208.210006713867
472.303,-179.550003051758
472.313,-147.870010375977
472.323,-104.090003967285
472.333,-55.120002746582
472.343,-10.3200006484985
472.353,31.1800022125244
472.361,82.9500045776367
472.371,122.500007629395
472.381,127.610008239746
472.391,121.590003967285
472.401,107.520004272461
472.411,72.2000045776367
472.421,22.1200008392334
472.431,-38.5
472.441,-114.410003662109
472.451,-157.710006713867
472.461,-155.260009765625
472.471,-130.160003662109
472.481,-65.0600051879883
472.491,4.90000009536743
472.501,68.6000061035156
472.511,142.940002441406
472.521,188.160003662109
472.531,183.710006713867
472.541,186.130004882812
472.551,164.460006713867
472.56,129.18000793457
472.57,73.5699996948242
472.58,-0.520000040531158
472.59,-78.1900024414062
472.6,-117.460006713867
472.61,-113.750007629395
472.62,-96.9100036621094
472.63,-89.6700057983398
472.64,-80.5700073242188
472.65,-61.2500038146973
472.66,-26.2500019073486
472.67,-7.21000051498413
472.68,-23.2400016784668
472.69,-44.2000007629395
472.7,-47.6700019836426
472.71,-21.0700016021729
472.72,8.43000030517578
472.73,30.9700012207031
472.74,45.4600028991699
472.75,48.8200035095215
472.759,61.4900016784668
472.769,56.4900016784668
472.779,4.72000026702881
472.789,-61.3500022888184
472.799,-117.42000579834
472.809,-165.230010986328
472.819,-193.790008544922
472.829,-208.18000793457
472.839,-220.850006103516
472.849,-209.470016479492
472.859,-159.700012207031
472.869,-103.18000793457
472.879,-44.4800033569336
472.889,2.03000020980835
472.899,36.9600028991699
472.909,69.4700012207031
472.919,92.9900054931641
472.929,100.340003967285
472.939,94.7800064086914
472.949,82.6300048828125
472.954,77.2400054931641
472.964,79.8000030517578
472.974,68.1800003051758
472.984,49.4500007629395
472.994,3.92000007629395
473.004,-64.4300003051758
473.014,-119.17000579834
473.024,-149.970001220703
473.034,-155.890014648438
473.044,-151.830001831055
473.054,-122.250007629395
473.064,-68.25
473.074,-1.15000009536743
473.084,62.3000030517578
473.094,88.9000015258789
473.104,100.410003662109
473.111,85.1500015258789
473.121,50.3600006103516
473.131,18.480001449585
473.141,-12.4200010299683
473.151,-42.7700004577637
473.161,-60.3400039672852
473.171,-57.9900016784668
473.181,-50.3300018310547
473.191,-39.7600021362305
473.201,-29.6800022125244
473.211,-25.6900005340576
473.221,-18.9000015258789
473.231,-14.9800004959106
473.241,-10.4300003051758
473.251,-6.89000034332275
473.261,-6.33000040054321
473.271,-0.630000054836273
473.281,4.90000009536743
473.291,10.7400007247925
473.301,25.2000007629395
473.31,40.6000022888184
473.32,50.5700035095215
473.33,59.9500045776367
473.34,61.2800025939941
473.35,36.7800025939941
473.36,15.9200010299683
473.37,-13.9300003051758
473.38,-42.9400024414062
473.39,-58.2700042724609
473.4,-69.7900009155273
473.41,-73.7100067138672
473.42,-68.7400054931641
473.43,-49.1700019836426
473.44,-37.3800010681152
473.45,-8.92000007629395
473.46,17.6000003814697
473.47,33.7700004577637
473.48,50.5000038146973
473.49,47.9100036621094
473.5,44.8300018310547
473.509,37.6900024414062
473.519,27.0500011444092
473.529,9.24000072479248
473.539,-5.39000034332275
473.549,-20.1900005340576
473.559,-45.3200035095215
473.569,-63.9800033569336
473.579,-95.2000045776367
473.589,-125.510009765625
473.599,-126.730003356934
473.609,-121.620002746582
473.619,-111.860008239746
473.629,-76.7900009155273
473.639,-66.0100021362305
473.649,-59.810001373291
473.659,-61.3200035095215
473.669,-61.4900016784668
473.679,-45.9200019836426
473.689,-46.370002746582
473.699,-73.9900054931641
473.704,60.5800018310547
473.714,48.930004119873
473.724,21.0700016021729
473.734,8.43000030517578
473.744,-21.5200004577637
473.754,-44.060001373291
473.764,-47.0000038146973
473.774,-54.4900016784668
473.784,-59.1500015258789
473.794,-34.5100021362305
473.804,-3.4300000667572
473.814,23.4500007629395
473.824,59.9200019836426
473.834,82.6300048828125
473.844,81.9300003051758
473.854,64.4700012207031
473.861,57.4700012207031
473.871,36.6800003051758
473.881,12.2800006866455
473.891,-18.5500011444092
473.901,-65.2000045776367
473.911,-60.7600021362305
473.921,-71.1900024414062
473.931,-102.270004272461
473.941,-112.590003967285
473.951,-86.6900024414062
473.961,-51.3400039672852
473.971,-22.0500011444092
473.981,8.85000038146973
473.991,52.180004119873
474.001,130.480010986328
474.011,155.850006103516
474.021,149.060012817383
474.031,133.700012207031
474.041,141.050003051758
474.051,117.18000793457
474.06,34.0500030517578
474.07,-18.8300018310547
474.08,-28.7000007629395
474.09,-54.180004119873
474.1,-97.0900039672852
474.11,-129.740005493164
474.12,-128.730010986328
474.13,-132.020004272461
474.14,-121.900009155273
474.15,-108.530006408691
474.16,-82.2100067138672
474.17,-46.5100021362305
474.18,-40.9500007629395
474.19,-40.8400001525879
474.2,-8.26000022888184
474.21,24.810001373291
474.22,27.230001449585
474.23,33.3500022888184
474.24,47.4900016784668
474.25,66.5699996948242
474.259,88.1300048828125
474.269,68.9500045776367
474.279,43.9600028991699
474.289,34.8900032043457
474.299,4.58000040054321
474.309,-35.0300025939941
474.319,-21.8400001525879
474.329,-50.8200035095215
474.339,-93.3400039672852
474.349,-109.410003662109
474.359,-132.720001220703
474.369,-112.700004577637
474.379,-91.3800048828125
474.389,-57.8500022888184
474.399,-4.76000022888184
474.409,20.7500019073486
474.419,58.060001373291
474.429,99.1900024414062
474.439,120.960006713867
474.449,111.860008239746
474.453,-83.9300003051758
474.463,-137.93000793457
474.473,-187.070007324219
474.483,-224.84001159668
474.493,-214.720016479492
474.503,-176.220001220703
474.513,-124.070007324219
474.523,-48.5100021362305
474.533,28.3500022888184
474.543,104.960006713867
474.553,171.150009155273
474.563,186.09001159668
474.573,183.400009155273
474.583,164.18000793457
474.593,114.480003356934
474.603,39.6500015258789
474.611,-7.10000038146973
474.621,-42.4500007629395
474.631,-90.9600067138672
474.641,-108.710006713867
474.651,-98.3800048828125
474.661,-91.4900054931641
474.671,-83.9300003051758
474.681,-51.5500030517578
474.691,-30.0300006866455
474.701,-15.9600009918213
474.711,0.840000033378601
474.721,30.3800010681152
474.731,54.7400016784668
474.741,78.2200012207031
474.751,111.720008850098
474.761,145.700012207031
474.771,166.810012817383
474.781,192.110015869141
474.791,219.800003051758
474.801,202.230010986328
474.81,161.310012817383
474.82,111.120002746582
474.83,39.4800033569336
474.84,-34.0900001525879
474.85,-106.26000213623
474.86,-154.910003662109
474.87,-171.500015258789
474.88,-172.720001220703
474.89,-154.140014648438
474.9,-110.42000579834
474.91,-54.810001373291
474.92,10.710000038147
474.93,77.5200042724609
474.94,99.2600021362305
474.95,80.6700057983398
474.96,67.6500015258789
474.97,43.9200019836426
474.98,2.20000004768372
474.99,-30.5900020599365
475,-50.8900032043457
475.008,-71.75
475.018,-91.1000061035156
475.028,-87.8500061035156
475.038,-60.4400024414062
475.048,-43.0100021362305
475.058,-27.0500011444092
475.068,7.70000028610229
475.078,40
475.088,69.4400024414062
475.098,94.5000076293945
475.108,102.370002746582
475.118,85.120002746582
475.128,61.1100044250488
475.138,57.4000015258789
475.148,35.3800010681152
475.158,0
475.168,-31.4300022125244
475.178,-73.390007019043
475.188,-115.530006408691
475.198,-140.520004272461
475.202,42.8000030517578
475.212,99.9200057983398
475.222,159.770004272461
475.232,183.780014038086
475.242,166.950012207031
475.252,127.990005493164
475.262,74.0600051879883
475.272,12.7700004577637
475.282,-38.5300025939941
475.292,-82.140007019043
475.302,-113.960006713867
475.312,-121.480003356934
475.322,-123.440002441406
475.332,-123.200004577637
475.342,-113.780006408691
475.352,-89.2500076293945
475.361,-44.2700004577637
475.371,16.1000003814697
475.381,51.1700019836426
475.391,84.0300064086914
475.401,114.450004577637
475.411,121.410003662109
475.421,86.6600036621094
475.431,32.4099998474121
475.441,6.96000051498413
475.451,-9.13000011444092
475.461,-14.8000011444092
475.471,-17.9200000762939
475.481,-32.4800033569336
475.491,-63.0000038146973
475.501,-79.9400024414062
475.511,-70.3800048828125
475.521,-70.6600036621094
475.531,-59.180004119873
475.541,-33.4600028991699
475.551,-2.13000011444092
475.56,19.5300006866455
475.57,15.1200008392334
475.58,-0.450000017881393
475.59,-34.0200004577637
475.6,-91.3800048828125
475.61,-155.010009765625
475.62,-214.580017089844
475.63,-272.440002441406
475.64,-344.260009765625
475.65,-369.210021972656
475.66,-383.350006103516
475.67,-411.070007324219
475.68,-407.050018310547
475.69,-311.850006103516
475.7,-182.660003662109
475.71,-65.9400024414062
475.72,39.2300033569336
475.73,126.660003662109
475.74,187.040008544922
475.75,225.500015258789
475.758,219.660003662109
475.768,165.580001831055
475.778,100.100006103516
475.788,66.8100051879883
475.798,44.0300025939941
475.808,41.7900009155273
475.818,28.0700016021729
475.828,-0.100000001490116
475.838,2.41000008583069
475.848,16.8700008392334
475.858,31.9500007629395
475.868,-2.62000012397766
475.878,-48.0200004577637
475.888,-81.620002746582
475.898,-87.8500061035156
475.908,-89.4900054931641
475.918,-91.7700042724609
475.928,-64.0100021362305
475.938,-11.6200008392334
475.948,72.1300048828125
475.952,258.190002441406
475.962,210.700012207031
475.972,115.92000579834
475.982,14.8700008392334
475.992,-60.3000030517578
476.002,-130.09001159668
476.012,-151.270004272461
476.022,-156.240005493164
476.032,-168.240005493164
476.042,-155.290008544922
476.052,-111.330001831055
476.062,-74.6900024414062
476.072,-57.6400032043457
476.082,-27.4000015258789
476.092,7.4200005531311
476.102,36.5
476.111,71.9200057983398
476.121,95.1300048828125
476.131,112.840003967285
476.141,144.650009155273
476.151,175.140014648438
476.161,154.940002441406
476.171,104.860008239746
476.181,56.7000045776367
476.191,6.65000009536743
476.201,-46.6500015258789
476.211,-100.130004882812
476.221,-130.230010986328
476.231,-162.120010375977
476.241,-192.780014038086
476.251,-198.380004882812
476.261,-208.530014038086
476.271,-238.140014648438
476.281,-221.580017089844
476.291,-173.040008544922
476.301,-123.410003662109
476.31,-57.8900032043457
476.32,14.7300004959106
476.33,70
476.34,119.140007019043
476.35,135.620010375977
476.36,100.800003051758
476.37,24.9900016784668
476.38,-19.1400012969971
476.39,-28.3800010681152
476.4,-19.1100006103516
476.41,-19.3900012969971
476.42,-21.4200000762939
476.43,3.32000017166138
476.44,8.57000064849854
476.45,46.620002746582
476.46,108.18000793457
476.47,107.76000213623
476.48,97.5800018310547
476.49,104.860008239746
476.5,88.370002746582
476.508,68.4600067138672
476.518,75
476.528,71.4700012207031
476.538,46.2700004577637
476.548,40.3900032043457
476.558,25.1600017547607
476.568,-15.0800008773804
476.578,-23.0300006866455
476.588,-8.78000068664551
476.598,-33.0400009155273
476.608,-41.4400024414062
476.618,-18.6500015258789
476.628,-21.4900016784668
476.638,-16.3800010681152
476.648,12.2800006866455
476.658,14.1400003433228
476.668,-14.0700006484985
476.678,4.23000001907349
476.688,13.5800008773804
476.698,-38.9900016784668
476.703,-33.3500022888184
476.713,-60.5100021362305
476.723,-72.1700057983398
476.733,-50.9200019836426
476.743,-27.7900009155273
476.753,-46.1300010681152
476.763,-54.560001373291
476.773,-21.6300010681152
476.783,-6.51000022888184
476.793,2.45000004768372
476.803,25.7900009155273
476.813,33.0699996948242
476.823,38.4600028991699
476.833,59.5700035095215
476.843,93.9400024414062
476.853,118.580001831055
476.861,138.950012207031
476.871,160.610000610352
476.881,180.560012817383
476.891,158.230010986328
476.901,138.280014038086
476.911,130.93000793457
476.921,116.160003662109
476.931,115.290008544922
476.941,100.620002746582
476.951,102.830001831055
476.961,96.6000061035156
476.971,103.630004882812
476.981,131.700012207031
476.991,125.230003356934
477.001,106.710006713867
477.011,75.8100051879883
477.021,40.7400016784668
477.031,9.8700008392334
477.041,-31.3900012969971
477.051,-73.6700057983398
477.06,-98.140007019043
477.07,-116.480003356934
477.08,-111.720008850098
477.09,-83.0900039672852
477.1,-43.7800025939941
477.11,-5.88000011444092
477.12,22.6100006103516
477.13,49.310001373291
477.14,56.4900016784668
477.15,50.1500015258789
477.16,45.6700019836426
477.17,39.0900001525879
477.18,33.9099998474121
477.19,28.9100017547607
477.2,21.3500003814697
477.21,29.9600009918213
477.22,42.4200019836426
477.23,45.2200012207031
477.24,42.2800025939941
477.25,42.9400024414062
477.258,53.4400024414062
477.268,60.2700042724609
477.278,57.3300018310547
477.288,57.120002746582
477.298,66.25
477.308,71.3300018310547
477.318,66.9200057983398
477.328,65.870002746582
477.338,76.6500015258789
477.348,90.6100006103516
477.358,91.6300048828125
477.368,84.0000076293945
477.378,79.2700042724609
477.388,67.7900009155273
477.398,54.6000022888184
477.408,33.4600028991699
477.418,16.730001449585
477.428,9.90000057220459
477.438,11.3700008392334
477.448,18.0900001525879
477.452,161.940002441406
477.462,193.860015869141
477.472,226.59001159668
477.482,246.710006713867
477.492,245.000015258789
477.502,230.160003662109
477.512,232.400009155273
477.522,231.380004882812
477.532,205.34001159668
477.542,176.780014038086
477.552,120.960006713867
477.562,86.3100051879883
477.572,69.4700012207031
477.582,28.0000019073486
477.592,-10.7800006866455
477.602,-19.4600009918213
477.611,3.99000024795532
477.621,13.2600002288818
477.631,26.6000003814697
477.641,39.9700012207031
477.651,48.7500038146973
477.661,72.9000015258789
477.671,76.8200073242188
477.681,70.0699996948242
477.691,64.5699996948242
477.701,69.7200012207031
477.711,75.6000061035156
477.721,67.370002746582
477.731,72.9400024414062
477.741,78.9600067138672
477.751,79.9700012207031
477.761,102.020004272461
477.771,98.9100036621094
477.781,56.9100036621094
477.791,12.1800003051758
477.801,-27.5100021362305
477.81,-54.6000022888184
477.82,-107.060005187988
477.83,-157.43000793457
477.84,-189.000015258789
477.85,-192.670013427734
477.86,-165.93000793457
477.87,-144.720001220703
477.88,-118.960006713867
477.89,-81.5100021362305
477.9,-35.3800010681152
477.91,21.0000019073486
477.92,66.8500061035156
477.93,92.4300079345703
477.94,99.7100067138672
477.95,101.810005187988
477.96,108.040008544922
477.97,108.67000579834
477.98,103.950004577637
477.99,81.3000030517578
478,54.3200035095215
478.008,41.7500038146973
478.018,31.9500007629395
478.028,32.4800033569336
478.038,19.8800010681152
478.048,-12.6000003814697
478.058,-31.0400009155273
478.068,-49.1400032043457
478.078,-54.2100028991699
478.088,-60.1300010681152
478.098,-75.140007019043
478.108,-95.6900024414062
478.118,-92.1500015258789
478.128,-93.4500045776367
478.138,-83.9300003051758
478.148,-67.1300048828125
478.158,-59.1500015258789
478.168,-30.8700008392334
478.178,4.34000015258789
478.188,48.370002746582
478.198,75.7700042724609
478.203,81.0200042724609
478.213,52.2900009155273
478.223,21.5900001525879
478.233,-22.4300003051758
478.243,-43.3600006103516
478.253,-49.7700004577637
478.263,-65.2400054931641
478.273,-67.1300048828125
478.283,-45.6700019836426
478.293,-11.7900009155273
478.303,32.8300018310547
478.313,79.5900039672852
478.323,110.630004882812
478.333,137.93000793457
478.343,182.100006103516
478.353,205.450012207031
478.361,203.560012817383
478.371,182.520004272461
478.381,159
478.391,161.100006103516
478.401,167.020004272461
478.411,157.390014648438
478.421,143.670013427734
478.431,141.889999389648
478.441,161.84001159668
478.451,177.970001220703
478.461,152.490005493164
478.471,100.450004577637
478.481,42.4200019836426
478.491,-0.170000001788139
478.501,-25.2700004577637
478.511,-64.6100006103516
478.521,-90.2600021362305
478.531,-96.3200073242188
478.541,-72.9700012207031
478.551,-36.0500030517578
478.56,-8.15000057220459
478.57,24.1100006103516
478.58,21.1700000762939
478.59,22.3600006103516
478.6,35.0300025939941
478.61,17.8800010681152
478.62,11.5800008773804
478.63,-10.1500005722046
478.64,-42.5900001525879
478.65,-64.6399993896484
478.66,-95.7600021362305
478.67,-120.850006103516
478.68,-140.59001159668
478.69,-147.100006103516
478.7,-135.270004272461
478.71,-117.700004577637
478.72,-104.580001831055
478.73,-86.4500045776367
478.74,-74.4800033569336
478.75,-54.2800025939941
478.758,-24.5700016021729
478.768,1.57000005245209
478.778,37.6900024414062
478.788,79.4800033569336
478.798,127.43000793457
478.808,173.070007324219
478.818,203.350006103516
478.828,202.860015869141
478.838,198.870010375977
478.848,188.020004272461
478.858,150.740005493164
478.868,81.7200012207031
478.878,12.6000003814697
478.888,-37.2000007629395
478.898,-54.9100036621094
478.908,-43.6400032043457
478.918,-27.3300018310547
478.928,-9.03000068664551
478.938,45.9500007629395
478.948,134.360000610352
478.952,237.300018310547
478.962,214.93000793457
478.972,158.160003662109
478.982,95.0900039672852
478.992,52.9500007629395
479.002,24.1800003051758
479.012,-2.45000004768372
479.022,-28.7700004577637
479.032,-72.8000030517578
479.042,-105.660003662109
479.052,-104.750007629395
479.062,-110.560005187988
479.072,-114.590003967285
479.082,-135.310012817383
479.092,-140.84001159668
479.102,-112.100006103516
479.111,-87.5000076293945
479.121,-64.7100067138672
479.131,-75.8400039672852
479.141,-79.3400039672852
479.151,-51.3800010681152
479.161,-19.6000003814697
479.171,11.4100008010864
479.181,24.1500015258789
479.191,22.6800003051758
479.201,24.7400016784668
479.211,28.1000003814697
479.221,28.1400012969971
479.231,12.8100004196167
479.241,1.29000008106232
479.251,10.5700006484985
479.261,33.2100028991699
479.271,75.6300048828125
479.281,95.8600082397461
479.291,120.400009155273
479.301,135.480010986328
479.309,168.870010375977
479.319,199.780014038086
479.329,230.750015258789
479.339,247.940017700195
479.349,232.220016479492
479.359,213.320007324219
479.369,181.510009765625
479.379,126.140007019043
479.389,76.4000015258789
479.399,16.8299999237061
479.409,-39.3400001525879
479.419,-76.8600006103516
479.429,-85.6100006103516
479.439,-79.1300048828125
479.449,-73.5
479.459,-61.4600028991699
479.469,-41.1600036621094
479.479,-19.1100006103516
479.489,3.04000020027161
479.499,2.94000005722046
479.508,-27.5800018310547
479.518,-54.4600028991699
479.528,-63.870002746582
479.538,-76.9300003051758
479.548,-81.1600036621094
479.558,-94.4300079345703
479.568,-93.4100036621094
479.578,-59.7100028991699
479.588,-18.230001449585
479.598,11.0900001525879
479.608,18.0900001525879
479.618,11.1300001144409
479.628,10.0800008773804
479.638,10.8800001144409
479.648,-9.20000076293945
479.658,-45.3600006103516
479.668,-71.7800064086914
479.678,-68.8800048828125
479.688,-54.6300010681152
479.698,-46.5100021362305
479.703,62.5800018310547
479.713,68.6000061035156
479.723,63.0000038146973
479.733,67.7900009155273
479.743,68.4200057983398
479.753,59.810001373291
479.763,51.1700019836426
479.773,58.1700019836426
479.783,73.390007019043
479.793,90.6800079345703
479.803,109.580001831055
479.813,114.060005187988
479.823,115.950004577637
479.833,114.17000579834
479.843,110.490005493164
479.853,97.6100082397461
479.861,74.6900024414062
479.871,46.8600006103516
479.881,27.0500011444092
479.891,34.5400009155273
479.901,43.5000038146973
479.911,57.1900024414062
479.921,82.1800003051758
479.931,109.970008850098
479.941,126.280006408691
479.951,135.59001159668
479.961,136.710006713867
479.971,120.92000579834
479.981,104.750007629395
479.991,71.9600067138672
480.001,40.2500038146973
480.011,-1.85000014305115
480.021,-28.3800010681152
480.031,-36.3600006103516
480.041,-50.9200019836426
480.051,-55.8900032043457
480.059,-67.0200042724609
480.069,-42.7700004577637
480.079,-14.1700010299683
480.089,4.20000028610229
480.099,20.0900001525879
480.109,32.7600021362305
480.119,35.1700019836426
480.129,32.8300018310547
480.139,33
480.149,34.6800003051758
480.159,25.2700004577637
480.169,19.1800003051758
480.179,10.9200000762939
480.189,5.67000007629395
480.199,1.78000009059906
480.209,-13.7500009536743
480.219,-40.6000022888184
480.229,-57.3600044250488
480.239,-60.8600044250488
480.249,-52.0800018310547
480.258,-40.3200035095215
480.268,-39.9000015258789
480.278,-26.0400009155273
480.288,4.90000009536743
480.298,16.8000011444092
480.308,14.0300006866455
480.318,31.4600009918213
480.328,47.180004119873
480.338,57.0800018310547
480.348,58.7600021362305
480.358,64.0100021362305
480.368,69.120002746582
480.378,72.870002746582
480.388,61.6300010681152
480.398,41.9600028991699
480.408,20.6500015258789
480.418,2.87000012397766
480.428,-12.8100004196167
480.438,-19.8800010681152
480.448,-17.6400012969971
480.452,24.1100006103516
480.462,13.4400005340576
480.472,12.8800010681152
480.482,23.4500007629395
480.492,15.6400003433228
480.502,10.3600006103516
480.512,6.54000043869019
480.522,23.060001373291
480.532,28.8000011444092
480.542,21.6300010681152
480.552,0.140000000596046
480.562,1.50000011920929
480.572,-5.67000007629395
480.582,-26.2500019073486
480.592,-37.870002746582
480.602,-14.6600008010864
480.611,7.52000045776367
480.621,8.99000072479248
480.631,14.0000009536743
480.641,41.0200004577637
480.651,65.9400024414062
480.661,60.2000045776367
480.671,37.1700019836426
480.681,36.2200012207031
480.691,16.1000003814697
480.701,-24.8500003814697
480.711,-42.9100036621094
480.721,-22.4700012207031
480.731,-25.7200012207031
480.741,-42.2400016784668
480.751,-25.8300018310547
480.761,8.99000072479248
480.771,-1.47000002861023
480.781,-33.7700004577637
480.791,-31.0100021362305
480.801,-19.7700004577637
480.809,-34.2300033569336
480.819,-46.4800033569336
480.829,-25.2700004577637
480.839,-5.88000011444092
480.849,-26.0000019073486
480.859,-38.9200019836426
480.869,-20.5100002288818
480.879,-11.0600004196167
480.889,-22.2600002288818
480.899,-13.6100006103516
480.909,15.1200008392334
480.919,3.78000020980835
480.929,-4.0600004196167
480.939,21.3500003814697
480.949,31.6000022888184
480.959,6.16000032424927
480.969,-2.45000004768372
480.979,15.9200010299683
480.989,14.1700010299683
480.999,-10.0400009155273
481.008,-11.8300008773804
481.018,1.6100001335144
481.028,-3.04000020027161
481.038,0.490000009536743
481.048,22.1900005340576
481.058,33.25
481.068,8.40000057220459
481.078,10.6000003814697
481.088,26.1400012969971
481.098,19.7700004577637
481.108,-2.10000014305115
481.118,-4.26999998092651
481.128,8.26000022888184
481.138,-5.28000020980835
481.148,-16.2400016784668
481.158,2.69000005722046
481.168,7.10000038146973
481.178,-5.42000007629395
481.188,8.68000030517578
481.198,28.6300010681152
481.202,-2.80000019073486
481.212,6.89000034332275
481.222,9.8700008392334
481.232,-9.03000068664551
481.242,-14.1700010299683
481.252,-1.40000009536743
481.262,-1.54000008106232
481.272,-19.7000007629395
481.282,-15.7100009918213
481.292,-5.95000028610229
481.302,-23.6600017547607
481.312,-23.5500011444092
481.322,-5.14000034332275
481.332,-11.4400005340576
481.342,-17.2900009155273
481.352,-7.35000038146973
481.361,4.26999998092651
481.371,3.88000011444092
481.381,6.51000022888184
481.391,6.47000026702881
481.401,16.8000011444092
481.411,16.0300006866455
481.421,19.5300006866455
481.431,-7.21000051498413
481.441,-26.7700004577637
481.451,-14.6300010681152
481.461,0.380000025033951
481.471,19.6300010681152
481.481,3.1100001335144
481.491,5.1100001335144
481.501,-26.810001373291
481.511,-62.9600028991699
481.521,-53.7600021362305
481.531,-60.8600044250488
481.541,-76.6800003051758
481.551,-69.4700012207031
481.559,-21.7700004577637
481.569,5.35000038146973
481.579,32.0900001525879
481.589,51.9400024414062
481.599,49.9800033569336
481.609,58.6900024414062
481.619,99.4000015258789
481.629,69.9300003051758
481.639,19.1800003051758
481.649,6.02000045776367
481.659,-5.14000034332275
481.669,-9.73000049591064
481.679,-13.7500009536743
481.689,-33.5300025939941
481.699,-62.930004119873
481.709,-63.0700035095215
481.719,-70.4500045776367
481.729,-85.1500015258789
481.739,-106.68000793457
481.749,-124.000007629395
481.758,-132.470001220703
481.768,-103.250007629395
481.778,-52.6400032043457
481.788,-17.4300003051758
481.798,2.83000016212463
481.808,77.9100036621094
481.818,109.200004577637
481.828,110.910003662109
481.838,109.620002746582
481.848,52.5700035095215
481.858,52.7800025939941
481.868,56.9800033569336
481.878,-3.88000011444092
481.888,-27.4000015258789
481.898,4.79000043869019
481.908,14.4500007629395
481.918,8.75
481.928,-4.41000032424927
481.938,-63.4900016784668
481.948,-55.8200035095215
481.952,123.300003051758
481.962,123.690002441406
481.972,106.26000213623
481.982,80.1500015258789
481.992,34.120002746582
482.002,-14.0000009536743
482.012,-43.1900024414062
482.022,-86.8000030517578
482.032,-128.170013427734
482.042,-142.130004882812
482.052,-127.780006408691
482.062,-112.560005187988
482.072,-67.7900009155273
482.082,-6.65000009536743
482.092,39.3000030517578
482.102,92.7800064086914
482.111,138.18000793457
482.121,122.220008850098
482.131,108.67000579834
482.141,97.7500076293945
482.151,48.930004119873
482.161,-10.3900003433228
482.171,-57.0800018310547
482.181,-103.770004272461
482.191,-147.770004272461
482.201,-160.050003051758
482.211,-166.390014648438
482.221,-174.230010986328
482.231,-143.43000793457
482.241,-76.7200012207031
482.251,-39.7900009155273
482.261,3.4300000667572
482.271,47.4200019836426
482.281,64.5400009155273
482.291,96.0400009155273
482.301,119.000007629395
482.309,105.660003662109
482.319,103.42000579834
482.329,111.190002441406
482.339,88.5800018310547
482.349,64.5400009155273
482.359,34.6100006103516
482.369,-6.72000026702881
482.379,-35.560001373291
482.389,-55.680004119873
482.399,-89.6300048828125
482.409,-130.650009155273
482.419,-160.580001831055
482.429,-173.210006713867
482.439,-160.540008544922
482.449,-131.110000610352
482.459,-99.8200073242188
482.469,-57.3600044250488
482.479,7.35000038146973
482.489,61.9500045776367
482.499,93.2400054931641
482.508,98.4500045776367
482.518,105.660003662109
482.528,110.67000579834
482.538,117.600006103516
482.548,91.1000061035156
482.558,54.2800025939941
482.568,25.9300003051758
482.578,-12.0700006484985
482.588,-36.120002746582
482.598,-65.8300018310547
482.608,-116.480003356934
482.618,-144.440002441406
482.628,-146.610000610352
482.638,-158.480010986328
482.648,-157.850006103516
482.658,-124.42000579834
482.668,-75.9800033569336
482.678,3.3600001335144
482.688,87.8800048828125
482.698,118.120002746582
482.703,-23.4100017547607
482.713,8.64000034332275
482.723,234.920013427734
482.733,270.580017089844
482.743,84.2800064086914
482.753,-66.3600006103516
482.763,-252.52001953125
482.773,-360.220031738281
482.783,-231.730010986328
482.793,-213.320007324219
482.803,-253.920013427734
482.813,-165.440002441406
482.823,-72.3100051879883
482.833,-78.8200073242188
482.843,-187.880004882812
482.853,-130.510009765625
482.86,-4.90000009536743
482.87,106.610008239746
482.88,195.050003051758
482.89,224.700012207031
482.9,207.020004272461
482.91,166.040008544922
482.92,135.620010375977
482.93,66.2200012207031
482.94,5.98000049591064
482.95,-17.6000003814697
482.96,-25.3400020599365
482.97,-31.7100009918213
482.98,-73.7800064086914
482.99,13.0200004577637
483,138.880004882812
483.01,163.690002441406
483.02,117.000007629395
483.03,54.4200019836426
483.04,22.4700012207031
483.05,-31.2900009155273
483.059,-64.6399993896484
483.069,-100.970001220703
483.079,-167.300003051758
483.089,-203.240005493164
483.099,-171.570007324219
483.109,-115.850006103516
483.119,-86.2000045776367
483.129,-47.0000038146973
483.139,76.8600006103516
483.149,224.520004272461
483.159,290.740020751953
483.169,272.790008544922
483.179,218.190017700195
483.189,164.010009765625
483.199,83.3000030517578
483.209,1.50000011920929
483.219,-85.0800018310547
483.229,-112.100006103516
483.239,-148.150009155273
483.249,-154.520004272461
483.258,-124.600006103516
483.268,-131.910003662109
483.278,-131.910003662109
483.288,-76.370002746582
