Time,AccelerometerX
489.294,-0.405517578125
489.304,-0.1331787109375
489.314,0.053741455078125
489.324,0.097900390625
489.334,0.0119705200195312
489.344,-0.144287109375
489.354,-0.307373046875
489.364,-0.4345703125
489.374,-0.5048828125
489.384,-0.505859375
489.394,-0.43505859375
489.404,-0.300048828125
489.418,-0.1322021484375
489.428,-0.00606155395507812
489.438,0.000839710235595703
489.448,-0.12396240234375
489.458,-0.322509765625
489.468,-0.513671875
489.478,-0.6435546875
489.488,-0.70166015625
489.498,-0.69775390625
489.508,-0.6494140625
489.518,-0.5615234375
489.528,-0.4287109375
489.538,-0.269775390625
489.548,-0.1396484375
489.558,-0.08905029296875
489.568,-0.1231689453125
489.578,-0.1983642578125
489.588,-0.2626953125
489.598,-0.294921875
489.608,-0.2998046875
489.616,-0.28076171875
489.626,-0.2279052734375
489.636,-0.1263427734375
489.646,0.012451171875
489.656,0.1341552734375
489.666,0.1727294921875
489.676,0.10723876953125
489.686,-0.0159912109375
489.696,-0.1319580078125
489.706,-0.2276611328125
489.716,-0.341064453125
489.726,-0.5087890625
489.736,-0.7333984375
489.746,-0.97998046875
489.756,-1.2021484375
489.766,-1.3681640625
489.776,-1.4541015625
489.786,-1.4228515625
489.796,-1.248046875
489.806,-0.94384765625
489.815,-0.57763671875
489.825,-0.27392578125
489.835,-0.1290283203125
489.845,-0.1351318359375
489.855,-0.226806640625
489.865,-0.345703125
489.875,-0.444580078125
489.885,-0.498291015625
489.895,-0.5048828125
489.905,-0.4580078125
489.915,-0.367431640625
489.925,-0.277587890625
489.935,-0.229248046875
489.945,-0.239013671875
489.955,-0.297119140625
489.965,-0.3740234375
489.975,-0.446044921875
489.985,-0.51513671875
489.995,-0.59716796875
490.005,-0.6923828125
490.009,-0.51806640625
490.019,-0.464599609375
490.029,-0.461181640625
490.039,-0.48583984375
490.049,-0.53857421875
490.059,-0.64794921875
490.069,-0.83154296875
490.079,-1.0634765625
490.089,-1.2734375
490.099,-1.37890625
490.109,-1.3427734375
490.119,-1.1923828125
490.129,-0.998046875
490.139,-0.82861328125
490.149,-0.72216796875
490.159,-0.7080078125
490.167,-0.810546875
490.177,-1.0244140625
490.187,-1.2939453125
490.197,-1.5341796875
490.207,-1.6669921875
490.217,-1.6533203125
490.227,-1.49609375
490.237,-1.2421875
490.247,-0.958984375
490.257,-0.69970703125
490.267,-0.50830078125
490.277,-0.416748046875
490.287,-0.431640625
490.297,-0.54541015625
490.307,-0.7373046875
490.317,-0.9599609375
490.327,-1.154296875
490.337,-1.2841796875
490.347,-1.349609375
490.357,-1.37109375
490.366,-1.3701171875
490.376,-1.345703125
490.386,-1.28125
490.396,-1.177734375
490.406,-1.064453125
490.416,-0.9775390625
490.426,-0.94677734375
490.436,-0.9853515625
490.446,-1.0712890625
490.456,-1.158203125
490.466,-1.203125
490.476,-1.185546875
490.486,-1.1142578125
490.496,-1.0087890625
490.506,-0.88720703125
490.516,-0.76708984375
490.526,-0.67138671875
490.536,-0.62353515625
490.546,-0.6455078125
490.556,-0.73974609375
490.565,-0.88525390625
490.575,-1.044921875
490.585,-1.1826171875
490.595,-1.2705078125
490.605,-1.2978515625
490.615,-1.2646484375
490.625,-1.1767578125
490.635,-1.0419921875
490.645,-0.87353515625
490.655,-0.6845703125
490.665,-0.49755859375
490.675,-0.33203125
490.685,-0.205078125
490.695,-0.1256103515625
490.705,-0.08544921875
490.715,-0.05975341796875
490.725,-0.0146636962890625
490.735,0.0823974609375
490.745,0.246337890625
490.755,0.464111328125
490.759,0.86181640625
490.769,0.69384765625
490.779,0.469970703125
490.789,0.2015380859375
490.799,-0.09332275390625
490.809,-0.389404296875
490.819,-0.6640625
490.829,-0.9033203125
490.839,-1.09375
490.849,-1.2216796875
490.859,-1.275390625
490.869,-1.2470703125
490.879,-1.1494140625
490.889,-1.005859375
490.899,-0.84423828125
490.909,-0.69873046875
490.917,-0.59912109375
490.927,-0.55908203125
490.937,-0.5810546875
490.947,-0.658203125
490.957,-0.7705078125
490.967,-0.88671875
490.977,-0.9677734375
490.987,-0.98095703125
490.997,-0.9130859375
491.007,-0.77734375
491.017,-0.60791015625
491.027,-0.453125
491.037,-0.3564453125
491.047,-0.337158203125
491.057,-0.381591796875
491.067,-0.461181640625
491.077,-0.55078125
491.087,-0.63037109375
491.097,-0.69091796875
491.107,-0.736328125
491.116,-0.767578125
491.126,-0.78076171875
491.136,-0.77294921875
491.146,-0.7373046875
491.156,-0.66796875
491.166,-0.57666015625
491.176,-0.486328125
491.186,-0.409912109375
491.196,-0.346923828125
491.206,-0.30029296875
491.216,-0.27978515625
491.226,-0.290771484375
491.236,-0.320556640625
491.246,-0.34423828125
491.256,-0.3388671875
491.266,-0.2939453125
491.276,-0.2218017578125
491.286,-0.1531982421875
491.296,-0.11053466796875
491.306,-0.10174560546875
491.315,-0.1292724609375
491.325,-0.1861572265625
491.335,-0.260498046875
491.345,-0.345947265625
491.355,-0.432861328125
491.365,-0.505859375
491.375,-0.55810546875
491.385,-0.58984375
491.395,-0.599609375
491.405,-0.58837890625
491.415,-0.5634765625
491.425,-0.53076171875
491.435,-0.5009765625
491.445,-0.47900390625
491.455,-0.455810546875
491.465,-0.415283203125
491.475,-0.345458984375
491.485,-0.2454833984375
491.495,-0.12225341796875
491.505,0.0137863159179688
491.509,0.464599609375
491.519,0.474853515625
491.529,0.49365234375
491.539,0.525390625
491.549,0.560546875
491.559,0.58837890625
491.569,0.59814453125
491.579,0.57666015625
491.589,0.5244140625
491.599,0.45068359375
491.609,0.363037109375
491.619,0.2734375
491.629,0.1917724609375
491.639,0.11431884765625
491.649,0.0372314453125
491.659,-0.0321044921875
491.667,-0.08428955078125
491.677,-0.1158447265625
491.687,-0.1279296875
491.697,-0.11767578125
491.707,-0.07476806640625
491.717,-0.00316810607910156
491.727,0.06964111328125
491.737,0.115478515625
491.747,0.12396240234375
491.757,0.09906005859375
491.767,0.051513671875
491.777,-0.006866455078125
491.787,-0.06298828125
491.797,-0.10009765625
491.807,-0.10528564453125
491.817,-0.07891845703125
491.827,-0.031982421875
491.837,0.0181427001953125
491.847,0.05218505859375
491.857,0.06317138671875
491.866,0.056884765625
491.876,0.042816162109375
491.886,0.03997802734375
491.896,0.0718994140625
491.906,0.1475830078125
491.916,0.259033203125
491.926,0.377685546875
491.936,0.45654296875
491.946,0.45654296875
491.956,0.36572265625
491.966,0.204345703125
491.976,0.025726318359375
491.986,-0.11248779296875
491.996,-0.18408203125
492.006,-0.1959228515625
492.016,-0.1767578125
492.026,-0.163818359375
492.036,-0.1846923828125
492.046,-0.256591796875
492.056,-0.3935546875
492.065,-0.59130859375
492.075,-0.81591796875
492.085,-1.0166015625
492.095,-1.1435546875
492.105,-1.16796875
492.115,-1.0986328125
492.125,-0.96826171875
492.135,-0.81396484375
492.145,-0.6787109375
492.155,-0.6025390625
492.165,-0.60888671875
492.175,-0.69189453125
492.185,-0.81103515625
492.195,-0.9150390625
492.205,-0.978515625
492.215,-1.0087890625
492.225,-1.041015625
492.235,-1.09765625
492.245,-1.1591796875
492.255,-1.1728515625
492.259,0.0709228515625
492.269,0.1766357421875
492.279,0.05419921875
492.289,-0.254150390625
492.299,-0.62451171875
492.309,-0.931640625
492.319,-1.1123046875
492.329,-1.1708984375
492.339,-1.14453125
492.349,-1.091796875
492.359,-1.0732421875
492.369,-1.1015625
492.379,-1.130859375
492.389,-1.130859375
492.399,-1.10546875
492.409,-1.025390625
492.417,-0.814453125
492.427,-0.47265625
492.437,-0.12890625
492.447,0.08087158203125
492.457,0.13330078125
492.467,0.07879638671875
492.477,-0.0443115234375
492.487,-0.2242431640625
492.497,-0.427001953125
492.507,-0.5751953125
492.517,-0.60205078125
492.527,-0.498779296875
492.537,-0.29833984375
492.547,-0.0546875
492.557,0.168212890625
492.567,0.307861328125
492.577,0.32080078125
492.587,0.1898193359375
492.597,-0.0679931640625
492.607,-0.390380859375
492.616,-0.6953125
492.626,-0.9150390625
492.636,-0.99609375
492.646,-0.89404296875
492.656,-0.59716796875
492.666,-0.1744384765625
492.676,0.2457275390625
492.686,0.55859375
492.696,0.73974609375
492.706,0.8212890625
492.716,0.84521484375
492.726,0.83349609375
492.736,0.79541015625
492.746,0.7412109375
492.756,0.68017578125
492.766,0.61328125
492.776,0.54248046875
492.786,0.477783203125
492.796,0.426025390625
492.806,0.38720703125
492.815,0.35546875
492.825,0.32421875
492.835,0.29833984375
492.845,0.288818359375
492.855,0.2958984375
492.865,0.299560546875
492.875,0.2587890625
492.885,0.114013671875
492.895,-0.18017578125
492.905,-0.6201171875
492.915,-1.1494140625
492.925,-1.67578125
492.935,-2.095703125
492.945,-2.318359375
492.955,-2.291015625
492.965,-2.02734375
492.975,-1.623046875
492.985,-1.203125
492.995,-0.87109375
493.005,-0.66455078125
493.009,-0.2330322265625
493.019,-0.13427734375
493.029,-0.04962158203125
493.039,0.00611495971679688
493.049,0.0113525390625
493.059,-0.03558349609375
493.069,-0.095458984375
493.079,-0.111572265625
493.089,-0.051727294921875
493.099,0.073486328125
493.109,0.2257080078125
493.119,0.364013671875
493.129,0.46142578125
493.139,0.50732421875
493.149,0.490478515625
493.159,0.386474609375
493.167,0.1785888671875
493.177,-0.12481689453125
493.187,-0.5
493.197,-0.90576171875
493.207,-1.271484375
493.217,-1.515625
493.227,-1.5732421875
493.237,-1.4306640625
493.247,-1.1298828125
493.257,-0.73974609375
493.267,-0.340576171875
493.277,-0.0132827758789062
493.287,0.177490234375
493.297,0.2103271484375
493.307,0.11334228515625
493.317,-0.06524658203125
493.327,-0.288818359375
493.337,-0.53271484375
493.347,-0.77587890625
493.357,-1.0029296875
493.366,-1.201171875
493.376,-1.361328125
493.386,-1.4814453125
493.396,-1.5576171875
493.406,-1.587890625
493.416,-1.56640625
493.426,-1.4638671875
493.436,-1.23828125
493.446,-0.8876953125
493.456,-0.4560546875
493.466,-0.0166778564453125
493.476,0.346923828125
493.486,0.5634765625
493.496,0.60302734375
493.506,0.48291015625
493.516,0.241455078125
493.526,-0.08917236328125
493.536,-0.470458984375
493.546,-0.83984375
493.556,-1.1279296875
493.565,-1.287109375
493.575,-1.3095703125
493.585,-1.228515625
493.595,-1.09375
493.605,-0.94091796875
493.615,-0.8017578125
493.625,-0.69580078125
493.635,-0.61279296875
493.645,-0.52099609375
493.655,-0.380126953125
493.665,-0.16455078125
493.675,0.11395263671875
493.685,0.409912109375
493.695,0.65673828125
493.705,0.7705078125
493.715,0.68603515625
493.725,0.403564453125
493.735,0.00410079956054688
493.745,-0.382080078125
493.755,-0.6337890625
493.759,0.11114501953125
493.769,0.318603515625
493.779,0.48046875
493.789,0.5693359375
493.799,0.560546875
493.809,0.4521484375
493.819,0.261474609375
493.829,0.0175018310546875
493.839,-0.23779296875
493.849,-0.451904296875
493.859,-0.5927734375
493.869,-0.66455078125
493.879,-0.677734375
493.889,-0.66162109375
493.899,-0.6845703125
493.909,-0.79345703125
493.917,-0.95654296875
493.927,-1.083984375
493.937,-1.0830078125
493.947,-0.9208984375
493.957,-0.65234375
493.967,-0.3837890625
493.977,-0.188232421875
493.987,-0.0650634765625
493.997,0.0114974975585938
494.007,0.06097412109375
494.017,0.094970703125
494.027,0.11297607421875
494.037,0.1163330078125
494.047,0.11004638671875
494.057,0.09075927734375
494.067,0.0418701171875
494.077,-0.06146240234375
494.087,-0.22412109375
494.097,-0.41552734375
494.107,-0.57958984375
494.116,-0.66357421875
494.126,-0.646484375
494.136,-0.53857421875
494.146,-0.3798828125
494.156,-0.224365234375
494.166,-0.1109619140625
494.176,-0.06884765625
494.186,-0.12890625
494.196,-0.30029296875
494.206,-0.5419921875
494.216,-0.76513671875
494.226,-0.88916015625
494.236,-0.8935546875
494.246,-0.810546875
494.256,-0.69091796875
494.266,-0.580078125
494.276,-0.50146484375
494.286,-0.450439453125
494.296,-0.40673828125
494.306,-0.3505859375
494.311,-0.1585693359375
494.321,-0.23681640625
494.331,-0.313232421875
494.341,-0.346923828125
494.351,-0.319580078125
494.361,-0.25927734375
494.371,-0.2208251953125
494.381,-0.24462890625
494.391,-0.342041015625
494.401,-0.490234375
494.411,-0.619140625
494.421,-0.66552734375
494.431,-0.6337890625
494.441,-0.55810546875
494.451,-0.462890625
494.461,-0.3662109375
494.468,-0.275634765625
494.478,-0.1907958984375
494.488,-0.126708984375
494.498,-0.11358642578125
494.508,-0.1795654296875
494.518,-0.3330078125
494.528,-0.544921875
494.538,-0.744140625
494.548,-0.84521484375
494.558,-0.8173828125
494.568,-0.70703125
494.578,-0.59228515625
494.588,-0.529296875
494.598,-0.5390625
494.608,-0.61083984375
494.618,-0.7109375
494.628,-0.787109375
494.638,-0.80810546875
494.648,-0.7763671875
494.658,-0.71728515625
494.667,-0.64990234375
494.677,-0.56396484375
494.687,-0.435302734375
494.697,-0.2705078125
494.707,-0.11236572265625
494.717,-0.00798797607421875
494.727,0.0140762329101562
494.737,-0.0474853515625
494.747,-0.1737060546875
494.757,-0.331298828125
494.767,-0.4794921875
494.777,-0.583984375
494.787,-0.626953125
494.797,-0.6123046875
494.807,-0.5595703125
494.817,-0.4775390625
494.827,-0.371826171875
494.837,-0.274169921875
494.847,-0.2239990234375
494.857,-0.251953125
494.866,-0.3671875
494.876,-0.54931640625
494.886,-0.75634765625
494.896,-0.927734375
494.906,-0.99853515625
494.916,-0.947265625
494.926,-0.80615234375
494.936,-0.65478515625
494.946,-0.5810546875
494.956,-0.6318359375
494.966,-0.7919921875
494.976,-0.986328125
494.986,-1.1083984375
494.996,-1.095703125
495.006,-0.958984375
495.016,-0.76904296875
495.026,-0.6337890625
495.036,-0.63427734375
495.046,-0.78271484375
495.056,-1.0224609375
495.061,-0.84912109375
495.071,-0.56103515625
495.081,-0.333984375
495.091,-0.2271728515625
495.101,-0.26904296875
495.111,-0.439208984375
495.121,-0.673828125
495.131,-0.88427734375
495.141,-0.9931640625
495.151,-0.974609375
495.161,-0.8603515625
495.171,-0.71484375
495.181,-0.60791015625
495.191,-0.58837890625
495.201,-0.65771484375
495.211,-0.77734375
495.218,-0.9052734375
495.228,-1.0107421875
495.238,-1.08203125
495.248,-1.1171875
495.258,-1.1201171875
495.268,-1.1005859375
495.278,-1.076171875
495.288,-1.05859375
495.298,-1.052734375
495.308,-1.0576171875
495.318,-1.064453125
495.328,-1.0673828125
495.338,-1.0654296875
495.348,-1.0546875
495.358,-1.029296875
495.368,-0.98291015625
495.378,-0.9140625
495.388,-0.8330078125
495.398,-0.75244140625
495.408,-0.673828125
495.417,-0.6083984375
495.427,-0.583984375
495.437,-0.615234375
495.447,-0.6962890625
495.457,-0.8076171875
495.467,-0.9248046875
495.477,-1.0283203125
495.487,-1.10546875
495.497,-1.1455078125
495.507,-1.1484375
495.517,-1.130859375
495.527,-1.107421875
495.537,-1.0966796875
495.547,-1.1005859375
495.557,-1.109375
495.567,-1.109375
495.577,-1.087890625
495.587,-1.0419921875
495.597,-0.978515625
495.607,-0.9052734375
495.616,-0.8291015625
495.626,-0.75732421875
495.636,-0.69970703125
495.646,-0.66748046875
495.656,-0.67236328125
495.666,-0.7119140625
495.676,-0.77294921875
495.686,-0.84130859375
495.696,-0.91357421875
495.706,-0.9912109375
495.716,-1.068359375
495.726,-1.130859375
495.736,-1.16015625
495.746,-1.14453125
495.756,-1.0830078125
495.766,-0.99609375
495.776,-0.90625
495.786,-0.82177734375
495.796,-0.74853515625
495.806,-0.689453125
495.811,-0.7666015625
495.821,-0.8486328125
495.831,-0.9111328125
495.841,-0.92724609375
495.851,-0.888671875
495.861,-0.80224609375
495.871,-0.6884765625
495.881,-0.5712890625
495.891,-0.462646484375
495.901,-0.369140625
495.911,-0.300537109375
495.921,-0.265380859375
495.931,-0.268798828125
495.941,-0.312744140625
495.951,-0.392578125
495.961,-0.5
495.968,-0.625
495.978,-0.74853515625
495.988,-0.8427734375
495.998,-0.88232421875
496.008,-0.8466796875
496.018,-0.740234375
496.028,-0.59375
496.038,-0.44189453125
496.048,-0.306640625
496.058,-0.1990966796875
496.068,-0.1275634765625
496.078,-0.11297607421875
496.088,-0.1815185546875
496.098,-0.329833984375
496.108,-0.5146484375
496.118,-0.681640625
496.128,-0.791015625
496.138,-0.83544921875
496.148,-0.83984375
496.158,-0.8359375
496.167,-0.83544921875
496.177,-0.83544921875
496.187,-0.83203125
496.197,-0.8359375
496.207,-0.857421875
496.217,-0.88818359375
496.227,-0.91455078125
496.237,-0.94482421875
496.247,-0.994140625
496.257,-1.0546875
496.267,-1.1025390625
496.277,-1.1171875
496.287,-1.0947265625
496.297,-1.0361328125
496.307,-0.9580078125
496.317,-0.88232421875
496.327,-0.82373046875
496.337,-0.7880859375
496.347,-0.7822265625
496.357,-0.802734375
496.366,-0.8310546875
496.376,-0.85791015625
496.386,-0.8857421875
496.396,-0.90966796875
496.406,-0.91357421875
496.416,-0.89208984375
496.426,-0.84814453125
496.436,-0.78173828125
496.446,-0.703125
496.456,-0.63916015625
496.466,-0.60888671875
496.476,-0.607421875
496.486,-0.62158203125
496.496,-0.64453125
496.506,-0.66943359375
496.516,-0.6826171875
496.526,-0.67333984375
496.536,-0.63525390625
496.546,-0.56787109375
496.556,-0.47998046875
496.561,-0.1954345703125
496.571,-0.176025390625
496.581,-0.1358642578125
496.591,-0.087158203125
496.601,-0.06536865234375
496.611,-0.102783203125
496.621,-0.1953125
496.631,-0.302978515625
496.641,-0.3837890625
496.651,-0.415771484375
496.661,-0.398193359375
496.671,-0.348876953125
496.681,-0.296142578125
496.691,-0.2626953125
496.701,-0.253662109375
496.711,-0.254638671875
496.718,-0.245849609375
496.728,-0.2225341796875
496.738,-0.1973876953125
496.748,-0.185546875
496.758,-0.19140625
496.768,-0.2113037109375
496.778,-0.2447509765625
496.788,-0.29443359375
496.798,-0.359619140625
496.808,-0.42578125
496.818,-0.464599609375
496.828,-0.45263671875
496.838,-0.39404296875
496.848,-0.319091796875
496.858,-0.266357421875
496.868,-0.2587890625
496.878,-0.289306640625
496.888,-0.328857421875
496.898,-0.35498046875
496.908,-0.361572265625
496.917,-0.346435546875
496.927,-0.306396484375
496.937,-0.249755859375
496.947,-0.18896484375
496.957,-0.1341552734375
496.967,-0.10400390625
496.977,-0.121337890625
496.987,-0.1993408203125
496.997,-0.341064453125
497.007,-0.537109375
497.017,-0.763671875
497.027,-0.98583984375
497.037,-1.1611328125
497.047,-1.2607421875
497.057,-1.267578125
497.067,-1.1787109375
497.077,-1.0146484375
497.087,-0.81591796875
497.097,-0.62548828125
497.107,-0.477783203125
497.116,-0.400146484375
497.126,-0.40869140625
497.136,-0.5029296875
497.146,-0.6650390625
497.156,-0.85693359375
497.166,-1.0263671875
497.176,-1.138671875
497.186,-1.177734375
497.196,-1.1435546875
497.206,-1.05078125
497.216,-0.92626953125
497.226,-0.802734375
497.236,-0.71533203125
497.246,-0.6923828125
497.256,-0.7412109375
497.266,-0.84814453125
497.276,-0.98193359375
497.286,-1.1025390625
497.296,-1.181640625
497.306,-1.2080078125
497.311,-0.78564453125
497.321,-0.7236328125
497.331,-0.70556640625
497.341,-0.728515625
497.351,-0.7841796875
497.361,-0.86083984375
497.371,-0.94482421875
497.381,-1.01953125
497.391,-1.0732421875
497.401,-1.1044921875
497.411,-1.1171875
497.421,-1.111328125
497.431,-1.083984375
497.441,-1.0322265625
497.451,-0.9609375
497.461,-0.87646484375
497.468,-0.78955078125
497.478,-0.7138671875
497.488,-0.66015625
497.498,-0.6328125
497.508,-0.6279296875
497.518,-0.638671875
497.528,-0.65087890625
497.538,-0.6474609375
497.548,-0.623046875
497.558,-0.5888671875
497.568,-0.55615234375
497.578,-0.529296875
497.588,-0.5166015625
497.598,-0.529296875
497.608,-0.56640625
497.618,-0.611328125
497.628,-0.64306640625
497.638,-0.6494140625
497.648,-0.62451171875
497.658,-0.56396484375
497.667,-0.46533203125
497.677,-0.330322265625
497.687,-0.1732177734375
497.697,-0.0120925903320312
497.707,0.13134765625
497.717,0.2271728515625
497.727,0.253173828125
497.737,0.2132568359375
497.747,0.1248779296875
497.757,0.0137252807617188
497.767,-0.0777587890625
497.777,-0.11175537109375
497.787,-0.09075927734375
497.797,-0.054229736328125
497.807,-0.042877197265625
497.817,-0.072509765625
497.827,-0.1373291015625
497.837,-0.2281494140625
497.847,-0.345458984375
497.857,-0.497802734375
497.866,-0.68701171875
497.876,-0.8974609375
497.886,-1.095703125
497.896,-1.2490234375
497.906,-1.3271484375
497.916,-1.3125
497.926,-1.2021484375
497.936,-1.013671875
497.946,-0.77880859375
497.956,-0.53369140625
497.966,-0.322998046875
497.976,-0.1834716796875
497.986,-0.1334228515625
497.996,-0.172119140625
498.006,-0.28515625
498.016,-0.44482421875
498.026,-0.6103515625
498.036,-0.73779296875
498.046,-0.79638671875
498.056,-0.7724609375
498.061,-0.151611328125
498.071,-0.1380615234375
498.081,-0.2183837890625
498.091,-0.387451171875
498.101,-0.60986328125
498.111,-0.83642578125
498.121,-1.0205078125
498.131,-1.1220703125
498.141,-1.1240234375
498.151,-1.0390625
498.161,-0.9033203125
498.171,-0.7509765625
498.181,-0.6162109375
498.191,-0.53173828125
498.201,-0.5205078125
498.211,-0.5810546875
498.218,-0.68701171875
498.228,-0.8056640625
498.238,-0.90380859375
498.248,-0.95263671875
498.258,-0.93701171875
498.268,-0.85986328125
498.278,-0.73681640625
498.288,-0.591796875
498.298,-0.454345703125
498.308,-0.357666015625
498.318,-0.32080078125
498.328,-0.34033203125
498.338,-0.39990234375
498.348,-0.471435546875
498.358,-0.5234375
498.368,-0.53955078125
498.378,-0.52294921875
498.388,-0.48388671875
498.398,-0.4345703125
498.408,-0.383544921875
498.417,-0.338134765625
498.427,-0.30615234375
498.437,-0.29638671875
498.447,-0.317138671875
498.457,-0.36474609375
498.467,-0.42041015625
498.477,-0.46923828125
498.487,-0.50439453125
498.497,-0.5166015625
498.507,-0.49462890625
498.517,-0.4375
498.527,-0.354736328125
498.537,-0.264892578125
498.547,-0.1849365234375
498.557,-0.12255859375
498.567,-0.086181640625
498.577,-0.08258056640625
498.587,-0.10650634765625
498.597,-0.142578125
498.607,-0.17626953125
498.615,-0.19580078125
498.625,-0.1875
498.635,-0.1444091796875
498.645,-0.07806396484375
498.655,-0.01080322265625
498.665,0.036468505859375
498.675,0.055999755859375
498.685,0.054290771484375
498.695,0.04107666015625
498.705,0.0270233154296875
498.715,0.0272064208984375
498.725,0.052093505859375
498.735,0.09307861328125
498.745,0.1278076171875
498.755,0.1368408203125
498.765,0.10736083984375
498.775,0.0355224609375
498.785,-0.06768798828125
498.795,-0.180419921875
498.805,-0.275390625
498.809,-0.0579833984375
498.819,0.0718994140625
498.829,0.18701171875
498.839,0.25244140625
498.849,0.2462158203125
498.859,0.1685791015625
498.869,0.04071044921875
498.879,-0.10028076171875
498.889,-0.216064453125
498.899,-0.282470703125
498.909,-0.29248046875
498.919,-0.251220703125
498.929,-0.1728515625
498.939,-0.0792236328125
498.949,0.00748825073242188
498.959,0.0712890625
498.968,0.10174560546875
498.978,0.091552734375
498.988,0.0421142578125
498.998,-0.033843994140625
499.008,-0.1192626953125
499.018,-0.1978759765625
499.028,-0.254638671875
499.038,-0.279541015625
499.048,-0.273193359375
499.058,-0.2391357421875
499.068,-0.17431640625
499.078,-0.0767822265625
499.088,0.037109375
499.098,0.138427734375
499.108,0.20849609375
499.118,0.23876953125
499.128,0.222412109375
499.138,0.163818359375
499.148,0.08258056640625
499.158,-0.00394058227539062
499.167,-0.08251953125
499.177,-0.134521484375
499.187,-0.14501953125
499.197,-0.117431640625
499.207,-0.064208984375
499.217,0.00384902954101562
499.227,0.07330322265625
499.237,0.12127685546875
499.247,0.1258544921875
499.257,0.08209228515625
499.267,0.000634193420410156
499.277,-0.1015625
499.287,-0.202392578125
499.297,-0.272705078125
499.307,-0.290771484375
499.317,-0.256103515625
499.327,-0.1834716796875
499.337,-0.086181640625
499.347,0.0241241455078125
499.357,0.1231689453125
499.365,0.181396484375
499.375,0.1865234375
499.385,0.147216796875
499.395,0.08056640625
499.405,0.00224685668945312
499.415,-0.07159423828125
499.425,-0.124755859375
499.435,-0.1485595703125
499.445,-0.1427001953125
499.455,-0.1085205078125
499.465,-0.048583984375
499.475,0.0247039794921875
499.485,0.08758544921875
499.495,0.1195068359375
499.505,0.1153564453125
499.515,0.0819091796875
499.525,0.0307159423828125
499.535,-0.025787353515625
499.545,-0.07598876953125
499.555,-0.11053466796875
499.559,-0.0276336669921875
499.569,0.00319480895996094
499.579,0.0253753662109375
499.589,0.037322998046875
499.599,0.045623779296875
499.609,0.054595947265625
499.619,0.061248779296875
499.629,0.0638427734375
499.639,0.06805419921875
499.649,0.0789794921875
499.659,0.09014892578125
499.669,0.08831787109375
499.679,0.0682373046875
499.689,0.03704833984375
499.699,0.00357627868652344
499.709,-0.026611328125
499.718,-0.047882080078125
499.728,-0.059417724609375
499.738,-0.063720703125
499.748,-0.056854248046875
499.758,-0.03277587890625
499.768,0.00355148315429688
499.778,0.0386962890625
499.788,0.0650634765625
499.798,0.0838623046875
499.808,0.0946044921875
499.818,0.0933837890625
499.828,0.08013916015625
499.838,0.058441162109375
499.848,0.032867431640625
499.858,0.00830841064453125
499.868,-0.011383056640625
499.878,-0.02703857421875
499.888,-0.04205322265625
499.898,-0.05584716796875
499.908,-0.06787109375
499.917,-0.08282470703125
499.927,-0.10272216796875
499.937,-0.11907958984375
499.947,-0.11932373046875
499.957,-0.0972900390625
499.967,-0.055511474609375
499.977,-0.00145912170410156
499.987,0.051727294921875
499.997,0.0872802734375
500.007,0.096435546875
500.017,0.08111572265625
500.027,0.046173095703125
500.037,0.001495361328125
500.047,-0.0364990234375
500.057,-0.055267333984375
500.067,-0.056182861328125
500.077,-0.050567626953125
500.087,-0.046356201171875
500.097,-0.045623779296875
500.107,-0.049713134765625
500.115,-0.055999755859375
500.125,-0.05712890625
500.135,-0.050079345703125
500.145,-0.039520263671875
500.155,-0.032379150390625
500.165,-0.033966064453125
500.175,-0.045440673828125
500.185,-0.06036376953125
500.195,-0.0654296875
500.205,-0.05316162109375
500.215,-0.0335693359375
500.225,-0.0246429443359375
500.235,-0.037109375
500.245,-0.070556640625
500.255,-0.11102294921875
500.265,-0.13427734375
500.275,-0.12481689453125
500.285,-0.08782958984375
500.295,-0.039947509765625
500.305,0.00178623199462891
500.309,-0.08587646484375
500.319,-0.13427734375
500.329,-0.1790771484375
500.339,-0.216552734375
500.349,-0.2423095703125
500.359,-0.2481689453125
500.369,-0.2281494140625
500.379,-0.179931640625
500.389,-0.1053466796875
500.399,-0.0176239013671875
500.409,0.059417724609375
500.419,0.10296630859375
500.429,0.09906005859375
500.439,0.04705810546875
500.449,-0.03173828125
500.459,-0.10211181640625
500.468,-0.1375732421875
500.478,-0.12481689453125
500.488,-0.05804443359375
500.498,0.04718017578125
500.508,0.14892578125
500.518,0.20556640625
500.528,0.1971435546875
500.538,0.1217041015625
500.548,-0.00262260437011719
500.558,-0.1351318359375
500.568,-0.237548828125
500.578,-0.300048828125
500.588,-0.332275390625
500.598,-0.332763671875
500.608,-0.2880859375
500.618,-0.196044921875
500.628,-0.0732421875
500.638,0.056976318359375
500.648,0.1673583984375
500.658,0.22998046875
500.667,0.2318115234375
500.677,0.1781005859375
500.687,0.0821533203125
500.697,-0.03643798828125
500.707,-0.15283203125
500.717,-0.24609375
500.727,-0.302490234375
500.737,-0.31884765625
500.747,-0.3037109375
500.757,-0.26806640625
500.767,-0.2137451171875
500.777,-0.14501953125
500.787,-0.08087158203125
500.797,-0.0377197265625
500.807,-0.016326904296875
500.817,-0.0132827758789062
500.827,-0.0276947021484375
500.837,-0.050323486328125
500.847,-0.067138671875
500.857,-0.075439453125
500.865,-0.0826416015625
500.875,-0.09613037109375
500.885,-0.1231689453125
500.895,-0.1693115234375
500.905,-0.22998046875
500.915,-0.293701171875
500.925,-0.34619140625
500.935,-0.36474609375
500.945,-0.325927734375
500.955,-0.2330322265625
500.965,-0.1163330078125
500.975,-0.00612640380859375
500.985,0.073974609375
500.995,0.10345458984375
501.005,0.07818603515625
501.015,0.014556884765625
501.025,-0.06683349609375
501.035,-0.1470947265625
501.045,-0.2056884765625
501.055,-0.228759765625
501.059,-0.12744140625
501.069,-0.1312255859375
501.079,-0.1505126953125
501.089,-0.185546875
501.099,-0.2332763671875
501.109,-0.275390625
501.119,-0.28662109375
501.129,-0.2587890625
501.139,-0.2142333984375
501.149,-0.185302734375
501.159,-0.18505859375
501.169,-0.2020263671875
501.179,-0.218017578125
501.189,-0.2261962890625
501.199,-0.2337646484375
501.209,-0.253662109375
501.218,-0.29052734375
501.228,-0.33203125
501.238,-0.357666015625
501.248,-0.351318359375
501.258,-0.312255859375
501.268,-0.25634765625
501.278,-0.2142333984375
501.288,-0.210205078125
501.298,-0.242431640625
501.308,-0.2880859375
501.318,-0.32275390625
501.328,-0.333251953125
501.338,-0.321044921875
501.348,-0.300048828125
501.358,-0.28271484375
501.368,-0.271484375
501.378,-0.260498046875
501.388,-0.2388916015625
501.398,-0.197998046875
501.408,-0.1383056640625
501.417,-0.07440185546875
501.427,-0.031585693359375
501.437,-0.033050537109375
501.447,-0.08599853515625
501.457,-0.177734375
501.467,-0.280517578125
501.477,-0.359130859375
501.487,-0.382080078125
501.497,-0.337158203125
501.507,-0.235595703125
501.517,-0.109130859375
501.527,-0.00300216674804688
501.537,0.04010009765625
501.547,-0.00254631042480469
501.557,-0.1248779296875
501.567,-0.29345703125
501.577,-0.457763671875
501.587,-0.57080078125
501.597,-0.60302734375
501.607,-0.55029296875
501.615,-0.4345703125
501.625,-0.2900390625
501.635,-0.14599609375
501.645,-0.027801513671875
501.655,0.040374755859375
501.665,0.045257568359375
501.675,-0.0102920532226562
501.685,-0.10736083984375
501.695,-0.214111328125
501.705,-0.29833984375
501.715,-0.33935546875
501.725,-0.328125
501.735,-0.2724609375
501.745,-0.1939697265625
501.755,-0.114990234375
501.765,-0.0513916015625
501.775,-0.012237548828125
501.785,0.00485992431640625
501.795,0.0134429931640625
501.805,0.029998779296875
501.809,0.08392333984375
501.819,-0.040863037109375
501.829,-0.2239990234375
501.839,-0.44140625
501.849,-0.658203125
501.859,-0.8349609375
501.869,-0.94140625
501.879,-0.9677734375
501.889,-0.92333984375
501.899,-0.8271484375
501.909,-0.70361328125
501.919,-0.58056640625
501.929,-0.480224609375
501.939,-0.412109375
501.949,-0.36474609375
501.959,-0.31201171875
501.968,-0.237548828125
501.978,-0.1422119140625
501.988,-0.034881591796875
501.998,0.0679931640625
502.008,0.14404296875
502.018,0.1737060546875
502.028,0.14208984375
502.038,0.040771484375
502.048,-0.12420654296875
502.058,-0.330810546875
502.068,-0.54345703125
502.078,-0.72216796875
502.088,-0.84814453125
502.098,-0.92529296875
502.108,-0.96337890625
502.118,-0.96630859375
502.128,-0.94091796875
502.138,-0.8974609375
502.148,-0.8544921875
502.158,-0.8359375
502.167,-0.8544921875
502.177,-0.900390625
502.187,-0.9521484375
502.197,-0.99072265625
502.207,-1.001953125
502.217,-0.97900390625
502.227,-0.927734375
502.237,-0.87548828125
502.247,-0.8466796875
502.257,-0.84716796875
502.267,-0.87060546875
502.277,-0.9140625
502.287,-0.96875
502.297,-1.0146484375
502.307,-1.044921875
502.317,-1.064453125
502.327,-1.0771484375
502.337,-1.0732421875
502.347,-1.052734375
502.357,-1.0263671875
502.365,-0.9951171875
502.375,-0.95849609375
502.385,-0.9248046875
502.395,-0.8994140625
502.405,-0.88330078125
502.415,-0.875
502.425,-0.86474609375
502.435,-0.841796875
502.445,-0.80859375
502.455,-0.77392578125
502.465,-0.75
502.475,-0.75048828125
502.485,-0.783203125
502.495,-0.84423828125
502.505,-0.919921875
502.515,-0.990234375
502.525,-1.037109375
502.535,-1.056640625
502.545,-1.0595703125
502.555,-1.0556640625
502.559,-0.92822265625
502.569,-0.86083984375
502.579,-0.79736328125
502.589,-0.755859375
502.599,-0.74560546875
502.609,-0.76171875
502.619,-0.7919921875
502.629,-0.81787109375
502.639,-0.828125
502.649,-0.8212890625
502.659,-0.8037109375
502.669,-0.783203125
502.679,-0.767578125
502.689,-0.7626953125
502.699,-0.77294921875
502.709,-0.79736328125
502.718,-0.8271484375
502.728,-0.8564453125
502.738,-0.88330078125
502.748,-0.9052734375
502.758,-0.9189453125
502.768,-0.9248046875
502.778,-0.92529296875
502.788,-0.916015625
502.798,-0.8916015625
502.808,-0.85302734375
502.818,-0.806640625
502.828,-0.7568359375
502.838,-0.70849609375
502.848,-0.6640625
502.858,-0.6259765625
502.868,-0.6015625
502.878,-0.5986328125
502.888,-0.615234375
502.898,-0.63671875
502.908,-0.64501953125
502.916,-0.63037109375
502.926,-0.60009765625
502.936,-0.57177734375
502.946,-0.55810546875
502.956,-0.55810546875
502.966,-0.56201171875
502.976,-0.5537109375
502.986,-0.5166015625
502.996,-0.443603515625
503.006,-0.349365234375
503.016,-0.25634765625
503.026,-0.17919921875
503.036,-0.1246337890625
503.046,-0.093017578125
503.056,-0.078369140625
503.066,-0.07427978515625
503.076,-0.07342529296875
503.086,-0.0697021484375
503.096,-0.07037353515625
503.106,-0.08612060546875
503.115,-0.11175537109375
503.125,-0.1365966796875
503.135,-0.1553955078125
503.145,-0.1641845703125
503.155,-0.1639404296875
503.165,-0.1627197265625
503.175,-0.1650390625
503.185,-0.1729736328125
503.195,-0.187255859375
503.205,-0.19189453125
503.215,-0.158447265625
503.225,-0.07733154296875
503.235,0.028961181640625
503.245,0.12335205078125
503.255,0.1705322265625
503.265,0.1451416015625
503.275,0.042572021484375
503.285,-0.11846923828125
503.295,-0.301513671875
503.305,-0.463134765625
503.309,-0.60498046875
503.319,-0.60791015625
503.329,-0.63134765625
503.339,-0.65185546875
503.349,-0.6494140625
503.359,-0.60595703125
503.369,-0.51171875
503.379,-0.376220703125
503.389,-0.233642578125
503.399,-0.11834716796875
503.409,-0.048553466796875
503.419,-0.0239715576171875
503.429,-0.034942626953125
503.439,-0.07391357421875
503.449,-0.13720703125
503.459,-0.2098388671875
503.468,-0.2626953125
503.478,-0.275146484375
503.488,-0.2451171875
503.498,-0.189453125
503.508,-0.1402587890625
503.518,-0.12298583984375
503.528,-0.1397705078125
503.538,-0.18017578125
503.548,-0.2330322265625
503.558,-0.28564453125
503.568,-0.320556640625
503.578,-0.320068359375
503.588,-0.2685546875
503.598,-0.1632080078125
503.608,-0.02056884765625
503.618,0.1312255859375
503.628,0.256591796875
503.638,0.3212890625
503.648,0.314208984375
503.658,0.2509765625
503.666,0.16015625
503.676,0.07257080078125
503.686,0.0112380981445312
503.696,-0.0152359008789062
503.706,-0.00751876831054688
503.716,0.020477294921875
503.726,0.038330078125
503.736,0.0129013061523438
503.746,-0.06854248046875
503.756,-0.188720703125
503.766,-0.314697265625
503.776,-0.41650390625
503.786,-0.475830078125
503.796,-0.49267578125
503.806,-0.476806640625
503.816,-0.427490234375
503.826,-0.34375
503.836,-0.2396240234375
503.846,-0.137939453125
503.856,-0.0592041015625
503.865,-0.0171356201171875
503.875,-0.0110244750976562
503.885,-0.0216217041015625
503.895,-0.0283660888671875
503.905,-0.02215576171875
503.915,0.000989913940429688
503.925,0.0400390625
503.935,0.0872802734375
503.945,0.130615234375
503.955,0.1494140625
503.965,0.12310791015625
503.975,0.054107666015625
503.985,-0.0295867919921875
503.995,-0.09503173828125
504.005,-0.12200927734375
504.015,-0.11224365234375
504.025,-0.0836181640625
504.035,-0.054290771484375
504.045,-0.039703369140625
504.055,-0.047637939453125
504.059,0.0252227783203125
504.069,0.07952880859375
504.079,0.1048583984375
504.089,0.097900390625
504.099,0.07208251953125
504.109,0.04229736328125
504.119,0.020477294921875
504.129,0.01873779296875
504.139,0.04541015625
504.149,0.09942626953125
504.159,0.1668701171875
504.169,0.2286376953125
504.179,0.27099609375
504.189,0.289306640625
504.199,0.286376953125
504.209,0.260986328125
504.218,0.2021484375
504.228,0.113037109375
504.238,0.0166015625
504.248,-0.06439208984375
504.258,-0.1146240234375
504.268,-0.1214599609375
504.278,-0.07598876953125
504.288,0.017608642578125
504.298,0.13427734375
504.308,0.2381591796875
504.318,0.299560546875
504.328,0.298583984375
504.338,0.2325439453125
504.348,0.121826171875
504.358,-0.00291252136230469
504.368,-0.114013671875
504.378,-0.1876220703125
504.388,-0.2109375
504.398,-0.189208984375
504.408,-0.1396484375
504.416,-0.07940673828125
504.426,-0.01983642578125
504.436,0.034454345703125
504.446,0.07843017578125
504.456,0.10406494140625
504.466,0.1051025390625
504.476,0.081298828125
504.486,0.043182373046875
504.496,0.0077972412109375
504.506,-0.01300048828125
504.516,-0.0136260986328125
504.526,0.0080108642578125
504.536,0.049713134765625
504.546,0.1015625
504.556,0.14453125
504.566,0.1629638671875
504.576,0.155517578125
504.586,0.128662109375
504.596,0.09063720703125
504.606,0.050933837890625
504.615,0.0178680419921875
504.625,-0.00157546997070312
504.635,-0.00634384155273438
504.645,-0.00545120239257812
504.655,-0.00751113891601562
504.665,-0.0137481689453125
504.675,-0.0210113525390625
504.685,-0.0233306884765625
504.695,-0.0180206298828125
504.705,-0.0079498291015625
504.715,0.00182533264160156
504.725,-0.00012505054473877
504.735,-0.0265960693359375
504.745,-0.0751953125
504.755,-0.1302490234375
504.765,-0.174072265625
504.775,-0.1884765625
504.785,-0.1629638671875
504.795,-0.1038818359375
504.805,-0.028839111328125
504.809,-0.0428466796875
504.819,-0.0987548828125
504.829,-0.1251220703125
504.839,-0.1326904296875
504.849,-0.158203125
504.859,-0.2139892578125
504.869,-0.2802734375
504.879,-0.315673828125
504.889,-0.27001953125
504.899,-0.1136474609375
504.909,0.1343994140625
504.919,0.40087890625
504.929,0.58642578125
504.939,0.62353515625
504.949,0.505859375
504.959,0.27978515625
504.968,0.0225067138671875
504.978,-0.218017578125
504.988,-0.45166015625
504.998,-0.68115234375
505.008,-0.873046875
505.018,-1.0078125
505.028,-1.087890625
505.038,-1.0869140625
505.048,-0.943359375
505.058,-0.6484375
505.068,-0.329345703125
505.078,-0.1510009765625
505.088,-0.2000732421875
505.098,-0.472900390625
505.108,-0.87841796875
505.118,-1.2451171875
505.128,-1.41796875
505.138,-1.3486328125
505.148,-1.0556640625
505.158,-0.55810546875
505.166,0.08258056640625
505.176,0.76611328125
505.186,1.3779296875
505.196,1.8095703125
505.206,2.001953125
505.216,1.9599609375
505.226,1.7333984375
505.236,1.3935546875
505.246,0.9873046875
505.256,0.5576171875
505.266,0.161376953125
505.276,-0.150146484375
505.286,-0.35205078125
505.296,-0.450927734375
505.306,-0.477783203125
505.316,-0.461669921875
505.326,-0.410400390625
505.336,-0.324951171875
505.346,-0.2333984375
505.356,-0.182373046875
505.365,-0.19921875
505.375,-0.276611328125
505.385,-0.37158203125
505.395,-0.41796875
505.405,-0.37353515625
505.415,-0.2459716796875
505.425,-0.07464599609375
505.435,0.09222412109375
505.445,0.2159423828125
505.455,0.277099609375
505.465,0.275146484375
505.475,0.2265625
505.485,0.154052734375
505.495,0.0740966796875
505.505,-0.00658416748046875
505.515,-0.08819580078125
505.525,-0.173828125
505.535,-0.26171875
505.545,-0.334716796875
505.555,-0.363037109375
505.559,-0.0587158203125
505.569,-0.03936767578125
505.579,-0.038604736328125
505.589,-0.05810546875
505.599,-0.091064453125
505.609,-0.1138916015625
505.619,-0.10540771484375
505.629,-0.07049560546875
505.639,-0.03851318359375
505.649,-0.036834716796875
505.659,-0.06793212890625
505.669,-0.11083984375
505.679,-0.137939453125
505.689,-0.1331787109375
505.699,-0.10528564453125
505.709,-0.08148193359375
505.718,-0.083984375
505.728,-0.10968017578125
505.738,-0.1375732421875
505.748,-0.151123046875
505.758,-0.150146484375
505.768,-0.1478271484375
505.778,-0.1572265625
505.788,-0.1787109375
505.798,-0.203125
505.808,-0.221923828125
505.818,-0.231689453125
505.828,-0.235107421875
505.838,-0.2421875
505.848,-0.259765625
505.858,-0.28125
505.868,-0.290771484375
505.878,-0.2763671875
505.888,-0.239013671875
505.898,-0.1944580078125
505.908,-0.165771484375
505.916,-0.16748046875
505.926,-0.1939697265625
505.936,-0.222412109375
505.946,-0.228759765625
505.956,-0.2030029296875
505.966,-0.159423828125
505.976,-0.1270751953125
505.986,-0.1263427734375
505.996,-0.157958984375
506.006,-0.2052001953125
506.016,-0.2457275390625
506.026,-0.26318359375
506.036,-0.25732421875
506.046,-0.2412109375
506.056,-0.230224609375
506.066,-0.233642578125
506.076,-0.253662109375
506.086,-0.286376953125
506.096,-0.316162109375
506.106,-0.323974609375
506.115,-0.297607421875
506.125,-0.2379150390625
506.135,-0.1595458984375
506.145,-0.08587646484375
506.155,-0.0374755859375
506.165,-0.0267486572265625
506.175,-0.052459716796875
506.185,-0.09625244140625
506.195,-0.13427734375
506.205,-0.1553955078125
506.215,-0.1649169921875
506.225,-0.1798095703125
506.235,-0.2147216796875
506.245,-0.266357421875
506.255,-0.320068359375
506.265,-0.364013671875
506.275,-0.388916015625
506.285,-0.391357421875
506.295,-0.3779296875
506.305,-0.353759765625
506.309,-0.076171875
506.319,-0.0748291015625
506.329,-0.10797119140625
506.339,-0.161376953125
506.349,-0.2171630859375
506.359,-0.25830078125
506.369,-0.283935546875
506.379,-0.30126953125
506.389,-0.3115234375
506.399,-0.314208984375
506.409,-0.308349609375
506.419,-0.290771484375
506.429,-0.262451171875
506.439,-0.2313232421875
506.449,-0.2054443359375
506.459,-0.1925048828125
506.468,-0.19775390625
506.478,-0.2174072265625
506.488,-0.2392578125
506.498,-0.253173828125
506.508,-0.256103515625
506.518,-0.258544921875
506.528,-0.2822265625
506.538,-0.333740234375
506.548,-0.400390625
506.558,-0.464111328125
506.568,-0.5029296875
506.578,-0.501953125
506.588,-0.46435546875
506.598,-0.399169921875
506.608,-0.31005859375
506.618,-0.2025146484375
506.628,-0.08184814453125
506.638,0.04205322265625
506.648,0.14697265625
506.658,0.2174072265625
506.666,0.251708984375
506.676,0.2509765625
506.686,0.2264404296875
506.696,0.194091796875
506.706,0.158935546875
506.716,0.12225341796875
506.726,0.08734130859375
506.736,0.049285888671875
506.746,-7.40289688110352e-05
506.756,-0.06195068359375
506.766,-0.1337890625
506.776,-0.20947265625
506.786,-0.28125
506.796,-0.34716796875
506.806,-0.405029296875
506.816,-0.447509765625
506.826,-0.46875
506.836,-0.469482421875
506.846,-0.457763671875
506.856,-0.4443359375
506.865,-0.434814453125
506.875,-0.431396484375
506.885,-0.441650390625
506.895,-0.470458984375
506.905,-0.51513671875
506.915,-0.572265625
506.925,-0.6376953125
506.935,-0.70263671875
506.945,-0.755859375
506.955,-0.78955078125
506.965,-0.798828125
506.975,-0.7861328125
506.985,-0.76318359375
506.995,-0.74169921875
507.005,-0.72705078125
507.015,-0.7177734375
507.025,-0.7138671875
507.035,-0.71435546875
507.045,-0.712890625
507.055,-0.70263671875
507.059,-0.437255859375
507.069,-0.361572265625
507.079,-0.29443359375
507.089,-0.2470703125
507.099,-0.226318359375
507.109,-0.2257080078125
507.119,-0.2274169921875
507.129,-0.2161865234375
507.139,-0.1827392578125
507.149,-0.118896484375
507.159,-0.0267791748046875
507.169,0.0740966796875
507.179,0.1575927734375
507.189,0.20068359375
507.199,0.1883544921875
507.209,0.1182861328125
507.217,-0.00215339660644531
507.227,-0.1614990234375
507.237,-0.344970703125
507.247,-0.5380859375
507.257,-0.73095703125
507.267,-0.9072265625
507.277,-1.0439453125
507.287,-1.1298828125
507.297,-1.1728515625
507.307,-1.1904296875
507.317,-1.1943359375
507.327,-1.1826171875
507.337,-1.1533203125
507.347,-1.11328125
507.357,-1.0791015625
507.367,-1.0556640625
507.377,-1.03515625
507.387,-1.0224609375
507.397,-1.05078125
507.407,-1.1455078125
507.416,-1.2763671875
507.426,-1.3779296875
507.436,-1.408203125
507.446,-1.380859375
507.456,-1.3427734375
507.466,-1.3349609375
507.476,-1.369140625
507.486,-1.4306640625
507.496,-1.48828125
507.506,-1.5107421875
507.516,-1.5009765625
507.526,-1.5068359375
507.536,-1.5849609375
507.546,-1.74609375
507.556,-1.9384765625
507.566,-2.083984375
507.576,-2.1171875
507.586,-1.9912109375
507.596,-1.6787109375
507.606,-1.1904296875
507.615,-0.58984375
507.625,-0.009124755859375
507.635,0.40576171875
507.645,0.572265625
507.655,0.4951171875
507.665,0.2373046875
507.675,-0.11883544921875
507.685,-0.495849609375
507.695,-0.8193359375
507.705,-1.04296875
507.715,-1.1728515625
507.725,-1.236328125
507.735,-1.2548828125
507.745,-1.23828125
507.755,-1.197265625
507.765,-1.1513671875
507.775,-1.1259765625
507.785,-1.13671875
507.795,-1.1806640625
507.805,-1.2353515625
507.809,-1.25
507.819,-1.2294921875
507.829,-1.205078125
507.839,-1.173828125
507.849,-1.1416015625
507.859,-1.12109375
507.869,-1.1162109375
507.879,-1.1240234375
507.889,-1.1376953125
507.899,-1.146484375
507.909,-1.142578125
507.919,-1.1298828125
507.929,-1.1171875
507.939,-1.11328125
507.949,-1.111328125
507.959,-1.109375
507.967,-1.109375
507.977,-1.11328125
507.987,-1.1259765625
507.997,-1.150390625
508.007,-1.18359375
508.017,-1.2197265625
508.027,-1.25
508.037,-1.263671875
508.047,-1.24609375
508.057,-1.193359375
508.067,-1.107421875
508.077,-1.00390625
508.087,-0.90087890625
508.097,-0.82080078125
508.107,-0.78125
508.117,-0.78759765625
508.127,-0.82861328125
508.137,-0.88623046875
508.147,-0.951171875
508.157,-1.01171875
508.166,-1.0537109375
508.176,-1.0771484375
508.186,-1.0849609375
508.196,-1.0693359375
508.206,-1.03125
508.216,-0.97998046875
508.226,-0.92724609375
508.236,-0.88623046875
508.246,-0.8681640625
508.256,-0.88134765625
508.266,-0.92138671875
508.276,-0.97509765625
508.286,-1.03515625
508.296,-1.0869140625
508.306,-1.111328125
508.316,-1.1015625
508.326,-1.0576171875
508.336,-0.9951171875
508.346,-0.9423828125
508.356,-0.90966796875
508.365,-0.8876953125
508.375,-0.8828125
508.385,-0.90283203125
508.395,-0.92919921875
508.405,-0.94580078125
508.415,-0.95654296875
508.425,-0.9599609375
508.435,-0.94970703125
508.445,-0.931640625
508.455,-0.91064453125
508.465,-0.8916015625
508.475,-0.884765625
508.485,-0.8857421875
508.495,-0.87890625
508.505,-0.86376953125
508.515,-0.84619140625
508.525,-0.81787109375
508.535,-0.775390625
508.545,-0.73828125
508.555,-0.72265625
508.559,-0.875
508.569,-0.89599609375
508.579,-0.90576171875
508.589,-0.91552734375
508.599,-0.9033203125
508.609,-0.8603515625
508.619,-0.81982421875
508.629,-0.8173828125
508.639,-0.83935546875
508.649,-0.845703125
508.659,-0.826171875
508.669,-0.81787109375
508.679,-0.8515625
508.689,-0.900390625
508.699,-0.8984375
508.709,-0.8076171875
508.717,-0.6640625
508.727,-0.55078125
508.737,-0.5205078125
508.747,-0.544921875
508.757,-0.5537109375
508.767,-0.5107421875
508.777,-0.44384765625
508.787,-0.40576171875
508.797,-0.41357421875
508.807,-0.437255859375
508.817,-0.447021484375
508.827,-0.45458984375
508.837,-0.49169921875
508.847,-0.55712890625
508.857,-0.6083984375
508.867,-0.60888671875
508.877,-0.572265625
508.887,-0.5439453125
508.897,-0.548828125
508.907,-0.56298828125
508.916,-0.5478515625
508.926,-0.50048828125
508.936,-0.4619140625
508.946,-0.4765625
508.956,-0.541015625
508.966,-0.60302734375
508.976,-0.60595703125
508.986,-0.53857421875
508.996,-0.4453125
509.006,-0.38525390625
509.016,-0.375
509.026,-0.364990234375
509.036,-0.284912109375
509.046,-0.11285400390625
509.056,0.0986328125
509.066,0.25537109375
509.076,0.28125
509.086,0.1661376953125
509.096,-0.0294342041015625
509.106,-0.2176513671875
509.115,-0.334716796875
509.125,-0.361328125
509.135,-0.312255859375
509.145,-0.21875
509.155,-0.1094970703125
509.165,0.0078277587890625
509.175,0.1466064453125
509.185,0.31689453125
509.195,0.50341796875
509.205,0.66650390625
509.215,0.75341796875
509.225,0.72802734375
509.235,0.599609375
509.245,0.42578125
509.255,0.267822265625
509.265,0.1568603515625
509.275,0.09759521484375
509.285,0.08709716796875
509.295,0.11785888671875
509.305,0.1695556640625
509.309,-0.09820556640625
509.319,-0.2027587890625
509.329,-0.279541015625
509.339,-0.29296875
509.349,-0.2283935546875
509.359,-0.10052490234375
509.369,0.05279541015625
509.379,0.1856689453125
509.389,0.2724609375
509.399,0.320556640625
509.409,0.34619140625
509.419,0.348388671875
509.429,0.314697265625
509.439,0.2332763671875
509.449,0.095458984375
509.459,-0.08245849609375
509.467,-0.251220703125
509.477,-0.357666015625
509.487,-0.373046875
509.497,-0.2919921875
509.507,-0.1259765625
509.517,0.0909423828125
509.527,0.30419921875
509.537,0.470458984375
509.547,0.56005859375
509.557,0.5556640625
509.567,0.46435546875
509.577,0.300537109375
509.587,0.076416015625
509.597,-0.1763916015625
509.607,-0.411376953125
509.617,-0.59521484375
509.627,-0.7060546875
509.637,-0.72216796875
509.647,-0.62451171875
509.657,-0.41796875
509.666,-0.14111328125
509.676,0.1444091796875
509.686,0.369140625
509.696,0.487548828125
509.706,0.50048828125
509.716,0.4423828125
509.726,0.349853515625
509.736,0.240478515625
509.746,0.12115478515625
509.756,0.0041656494140625
509.766,-0.1015625
509.776,-0.1998291015625
509.786,-0.288330078125
509.796,-0.346923828125
509.806,-0.354248046875
509.816,-0.30029296875
509.826,-0.1868896484375
509.836,-0.030120849609375
509.846,0.134765625
509.856,0.27294921875
509.865,0.365234375
509.875,0.401611328125
509.885,0.379638671875
509.895,0.3125
509.905,0.2288818359375
509.915,0.1549072265625
509.925,0.10528564453125
509.935,0.08319091796875
509.945,0.07586669921875
509.955,0.061614990234375
509.965,0.0323486328125
509.975,-0.0057830810546875
509.985,-0.04766845703125
509.995,-0.08807373046875
510.005,-0.11358642578125
510.015,-0.107177734375
510.025,-0.0653076171875
510.035,-0.00483322143554688
510.045,0.054351806640625
510.055,0.1036376953125
510.06,0.019622802734375
510.07,-0.00399398803710938
510.08,-0.0101852416992188
510.09,0.00244522094726562
510.1,0.0279998779296875
510.11,0.062103271484375
510.12,0.09625244140625
510.13,0.11065673828125
510.14,0.095703125
510.15,0.06048583984375
510.16,0.0154876708984375
510.17,-0.026458740234375
510.18,-0.047119140625
510.19,-0.038421630859375
510.2,-0.00632858276367188
510.21,0.036895751953125
510.217,0.07403564453125
510.227,0.09246826171875
510.237,0.090087890625
510.247,0.066162109375
510.257,0.0198974609375
510.267,-0.0433349609375
510.277,-0.10736083984375
510.287,-0.14892578125
510.297,-0.1541748046875
510.307,-0.12469482421875
510.317,-0.06884765625
510.327,-0.0010986328125
510.337,0.0596923828125
510.347,0.0989990234375
510.357,0.11114501953125
510.367,0.10125732421875
510.377,0.0806884765625
510.387,0.055999755859375
510.397,0.024810791015625
510.407,-0.017669677734375
510.416,-0.06744384765625
510.426,-0.11279296875
510.436,-0.1422119140625
510.446,-0.1474609375
510.456,-0.1265869140625
510.466,-0.084228515625
510.476,-0.03118896484375
510.486,0.018768310546875
510.496,0.058868408203125
510.506,0.08905029296875
510.516,0.10760498046875
510.526,0.107666015625
510.536,0.08355712890625
510.546,0.035888671875
510.556,-0.034454345703125
510.566,-0.12445068359375
510.576,-0.2213134765625
510.586,-0.3046875
510.596,-0.351318359375
510.606,-0.34375
510.615,-0.28271484375
510.625,-0.184814453125
510.635,-0.07049560546875
510.645,0.038482666015625
510.655,0.12030029296875
510.665,0.163330078125
510.675,0.1707763671875
510.685,0.1549072265625
510.695,0.125732421875
510.705,0.085205078125
510.715,0.037567138671875
510.725,-0.00345039367675781
510.735,-0.0264129638671875
510.745,-0.031768798828125
510.755,-0.02569580078125
510.765,-0.0130996704101562
510.775,-0.0002288818359375
510.785,0.00645065307617188
510.795,0.00485610961914062
510.805,0.00106143951416016
510.809,0.1318359375
510.819,0.1817626953125
510.829,0.2174072265625
510.839,0.2244873046875
510.849,0.201904296875
510.859,0.162353515625
510.869,0.1260986328125
510.879,0.10736083984375
510.889,0.08026123046875
510.899,-0.048583984375
510.909,-0.379150390625
510.919,-0.919921875
510.929,-1.5625
510.939,-2.080078125
510.949,-2.19140625
510.959,-1.7236328125
510.967,-0.75146484375
510.977,0.414794921875
510.987,1.3564453125
510.997,1.7421875
511.007,1.46875
511.017,0.65185546875
511.027,-0.429931640625
511.037,-1.44140625
511.047,-2.09765625
511.057,-2.232421875
511.067,-1.802734375
511.077,-0.9169921875
511.087,0.1866455078125
511.097,1.1943359375
511.107,1.8115234375
511.117,1.8642578125
511.127,1.35546875
511.137,0.44140625
511.147,-0.6640625
511.157,-1.76953125
511.166,-2.732421875
511.176,-3.4453125
511.186,-3.806640625
511.196,-3.7265625
511.206,-3.169921875
511.216,-2.19921875
511.226,-0.9775390625
511.236,0.2998046875
511.246,1.44140625
511.256,2.26953125
511.266,2.646484375
511.276,2.53125
511.286,1.9873046875
511.296,1.1533203125
511.306,0.182373046875
511.316,-0.80859375
511.326,-1.7431640625
511.336,-2.515625
511.346,-2.970703125
511.356,-2.99609375
511.361,1.9365234375
511.371,2.84765625
511.381,3.40625
511.391,3.62890625
511.401,3.583984375
511.411,3.357421875
511.421,3.025390625
511.431,2.64453125
511.441,2.25390625
511.451,1.8671875
511.461,1.4892578125
511.471,1.1162109375
511.481,0.76171875
511.491,0.475830078125
511.501,0.30859375
511.511,0.262451171875
511.518,0.287353515625
511.528,0.311767578125
511.538,0.286376953125
511.548,0.1982421875
511.558,0.052337646484375
511.568,-0.1343994140625
511.578,-0.31640625
511.588,-0.433837890625
511.598,-0.461181640625
511.608,-0.422607421875
511.618,-0.3466796875
511.628,-0.23095703125
511.638,-0.060577392578125
511.648,0.1529541015625
511.658,0.363037109375
511.668,0.513671875
511.678,0.57470703125
511.688,0.54541015625
511.698,0.434326171875
511.708,0.262451171875
511.717,0.0657958984375
511.727,-0.113037109375
511.737,-0.23486328125
511.747,-0.27099609375
511.757,-0.2120361328125
511.767,-0.0782470703125
511.777,0.08245849609375
511.787,0.21630859375
511.797,0.282470703125
511.807,0.264892578125
511.817,0.177734375
511.827,0.0592041015625
511.837,-0.047271728515625
511.847,-0.11260986328125
511.857,-0.125732421875
511.867,-0.09259033203125
511.877,-0.033172607421875
511.887,0.029693603515625
511.897,0.07489013671875
511.907,0.08624267578125
511.916,0.06201171875
511.926,0.0106048583984375
511.936,-0.056976318359375
511.946,-0.1282958984375
511.956,-0.1883544921875
511.966,-0.2183837890625
511.976,-0.21044921875
511.986,-0.176513671875
511.996,-0.1328125
512.006,-0.09112548828125
512.016,-0.0601806640625
512.026,-0.039306640625
512.036,-0.023834228515625
512.046,-0.014190673828125
512.056,-0.008819580078125
512.066,-0.00354957580566406
512.076,0.00406265258789062
512.086,0.0183563232421875
512.096,0.0390625
512.106,0.057708740234375
512.111,-0.0261993408203125
512.121,-0.07220458984375
512.131,-0.1063232421875
512.141,-0.11431884765625
512.151,-0.09185791015625
512.161,-0.049652099609375
512.171,-0.00238418579101562
512.181,0.031768798828125
512.191,0.030364990234375
512.201,-0.0156021118164062
512.211,-0.09039306640625
512.221,-0.1705322265625
512.231,-0.2421875
512.241,-0.29833984375
512.251,-0.33642578125
512.261,-0.36376953125
512.268,-0.390625
512.278,-0.412841796875
512.288,-0.411865234375
512.298,-0.3720703125
512.308,-0.288818359375
512.318,-0.1669921875
512.328,-0.0298614501953125
512.338,0.08447265625
512.348,0.1536865234375
512.358,0.1773681640625
512.368,0.1533203125
512.378,0.0831298828125
512.388,-0.0086212158203125
512.398,-0.092529296875
512.408,-0.1597900390625
512.418,-0.2158203125
512.428,-0.265625
512.438,-0.310302734375
512.448,-0.3427734375
512.458,-0.35498046875
512.467,-0.348388671875
512.477,-0.32861328125
512.487,-0.29150390625
512.497,-0.2391357421875
512.507,-0.1910400390625
512.517,-0.1619873046875
512.527,-0.1453857421875
512.537,-0.1287841796875
512.547,-0.10797119140625
512.557,-0.0799560546875
512.567,-0.0428466796875
512.577,-0.00518798828125
512.587,0.0169677734375
512.597,0.00722885131835938
512.607,-0.043792724609375
512.617,-0.1280517578125
512.627,-0.2210693359375
512.637,-0.2978515625
512.647,-0.344482421875
512.657,-0.360595703125
512.666,-0.353515625
512.676,-0.328125
512.686,-0.277587890625
512.696,-0.2032470703125
512.706,-0.129638671875
512.716,-0.0789794921875
512.726,-0.047149658203125
512.736,-0.0156402587890625
512.746,0.0277862548828125
512.756,0.076416015625
512.766,0.1021728515625
512.776,0.08111572265625
512.786,0.0282135009765625
512.796,-0.01739501953125
512.806,-0.0352783203125
512.816,-0.031707763671875
512.826,-0.027130126953125
512.836,-0.046966552734375
512.846,-0.1019287109375
512.856,-0.1806640625
512.861,-0.3642578125
512.871,-0.331787109375
512.881,-0.2919921875
512.891,-0.249267578125
512.901,-0.2034912109375
512.911,-0.1578369140625
512.921,-0.1209716796875
512.931,-0.0985107421875
512.941,-0.09564208984375
512.951,-0.12042236328125
512.961,-0.1702880859375
512.971,-0.2271728515625
512.981,-0.27197265625
512.991,-0.292236328125
513.001,-0.28271484375
513.011,-0.251220703125
513.018,-0.2132568359375
513.028,-0.1806640625
513.038,-0.1553955078125
513.048,-0.1285400390625
513.058,-0.08514404296875
513.068,-0.02227783203125
513.078,0.04522705078125
513.088,0.09735107421875
513.098,0.11700439453125
513.108,0.09234619140625
513.118,0.025482177734375
513.128,-0.0682373046875
513.138,-0.1722412109375
513.148,-0.27392578125
513.158,-0.36328125
513.168,-0.429443359375
513.178,-0.45654296875
513.188,-0.426025390625
513.198,-0.336669921875
513.208,-0.211669921875
513.217,-0.08819580078125
513.227,-0.00473785400390625
513.237,0.013031005859375
513.247,-0.031280517578125
513.257,-0.11431884765625
513.267,-0.213623046875
513.277,-0.30908203125
513.287,-0.384033203125
513.297,-0.43408203125
513.307,-0.46435546875
513.317,-0.483642578125
513.327,-0.50048828125
513.337,-0.51220703125
513.347,-0.501953125
513.357,-0.456298828125
513.367,-0.37255859375
513.377,-0.2587890625
513.387,-0.1307373046875
513.397,-0.01104736328125
513.407,0.08074951171875
513.416,0.1273193359375
513.426,0.11102294921875
513.436,0.028076171875
513.446,-0.10247802734375
513.456,-0.258056640625
513.466,-0.427001953125
513.476,-0.5986328125
513.486,-0.7568359375
513.496,-0.88623046875
513.506,-0.9765625
513.516,-1.021484375
513.526,-1.0234375
513.536,-0.998046875
513.546,-0.95849609375
513.556,-0.90966796875
513.566,-0.859375
513.576,-0.81640625
513.586,-0.77978515625
513.596,-0.7490234375
513.606,-0.732421875
513.611,-0.82763671875
513.621,-0.83447265625
513.631,-0.8330078125
513.641,-0.82568359375
513.651,-0.80859375
513.661,-0.78369140625
513.671,-0.75732421875
513.681,-0.734375
513.691,-0.72607421875
513.701,-0.74072265625
513.711,-0.767578125
513.721,-0.7880859375
513.731,-0.79736328125
513.741,-0.79931640625
513.751,-0.796875
513.761,-0.79345703125
513.768,-0.79541015625
513.778,-0.8017578125
513.788,-0.8046875
513.798,-0.7998046875
513.808,-0.78173828125
513.818,-0.74853515625
513.828,-0.705078125
513.838,-0.66064453125
513.848,-0.630859375
513.858,-0.6279296875
513.868,-0.64404296875
513.878,-0.66650390625
513.888,-0.6962890625
513.898,-0.73974609375
513.908,-0.79833984375
513.918,-0.86767578125
513.928,-0.9267578125
513.938,-0.943359375
513.948,-0.90234375
513.958,-0.810546875
513.967,-0.67431640625
513.977,-0.50048828125
513.987,-0.312744140625
513.997,-0.14599609375
514.007,-0.01824951171875
514.017,0.0723876953125
514.027,0.12744140625
514.037,0.1455078125
514.047,0.134765625
514.057,0.1014404296875
514.067,0.03411865234375
514.077,-0.0784912109375
514.087,-0.2210693359375
514.097,-0.362060546875
514.107,-0.476806640625
514.117,-0.5478515625
514.127,-0.55859375
514.137,-0.50634765625
514.147,-0.41259765625
514.157,-0.312255859375
514.166,-0.2325439453125
514.176,-0.1805419921875
514.186,-0.149169921875
514.196,-0.13232421875
514.206,-0.1275634765625
514.216,-0.13330078125
514.226,-0.1484375
514.236,-0.1700439453125
514.246,-0.189453125
514.256,-0.1971435546875
514.266,-0.1905517578125
514.276,-0.1778564453125
514.286,-0.172119140625
514.296,-0.1767578125
514.306,-0.182861328125
514.316,-0.185791015625
514.326,-0.1943359375
514.336,-0.21630859375
514.346,-0.2432861328125
514.356,-0.263671875
514.361,-0.32275390625
514.371,-0.276611328125
514.381,-0.216552734375
514.391,-0.1534423828125
514.401,-0.10040283203125
514.411,-0.0716552734375
514.421,-0.07275390625
514.431,-0.095458984375
514.441,-0.12890625
514.451,-0.16796875
514.461,-0.2025146484375
514.471,-0.217041015625
514.481,-0.2098388671875
514.491,-0.2025146484375
514.501,-0.2249755859375
514.511,-0.28955078125
514.518,-0.385498046875
514.528,-0.482421875
514.538,-0.54052734375
514.548,-0.5341796875
514.558,-0.469482421875
514.568,-0.370849609375
514.578,-0.263916015625
514.588,-0.167724609375
514.598,-0.09234619140625
514.608,-0.037139892578125
514.618,0.00161075592041016
514.628,0.020263671875
514.638,0.01983642578125
514.648,0.0099029541015625
514.658,-0.0145263671875
514.668,-0.07550048828125
514.678,-0.18017578125
514.688,-0.30517578125
514.698,-0.41552734375
514.708,-0.48583984375
514.717,-0.50341796875
514.727,-0.47021484375
514.737,-0.3974609375
514.747,-0.30810546875
514.757,-0.2247314453125
514.767,-0.1591796875
514.777,-0.1190185546875
514.787,-0.10272216796875
514.797,-0.08807373046875
514.807,-0.049407958984375
514.817,0.017822265625
514.827,0.09674072265625
514.837,0.1651611328125
514.847,0.208740234375
514.857,0.22216796875
514.867,0.204833984375
514.877,0.155517578125
514.887,0.0765380859375
514.897,-0.0251007080078125
514.907,-0.1400146484375
514.916,-0.258544921875
514.926,-0.37109375
514.936,-0.465576171875
514.946,-0.52587890625
514.956,-0.533203125
514.966,-0.470703125
514.976,-0.339599609375
514.986,-0.1649169921875
514.996,0.0129241943359375
515.006,0.149169921875
515.016,0.214599609375
515.026,0.2103271484375
515.036,0.1649169921875
515.046,0.11572265625
515.056,0.07720947265625
515.066,0.033355712890625
515.076,-0.02642822265625
515.086,-0.08648681640625
515.096,-0.1282958984375
515.106,-0.1495361328125
515.109,-0.19482421875
515.119,-0.204833984375
515.129,-0.1962890625
515.139,-0.1517333984375
515.149,-0.07061767578125
515.159,0.0269775390625
515.169,0.115234375
515.179,0.17236328125
515.189,0.1856689453125
515.199,0.14990234375
515.209,0.059234619140625
515.219,-0.08636474609375
515.229,-0.26220703125
515.239,-0.427734375
515.249,-0.55322265625
515.259,-0.62744140625
515.268,-0.64697265625
515.278,-0.6083984375
515.288,-0.5048828125
515.298,-0.339111328125
515.308,-0.141357421875
515.318,0.03118896484375
515.328,0.12939453125
515.338,0.138916015625
515.348,0.07830810546875
515.358,-0.0160675048828125
515.368,-0.1109619140625
515.378,-0.1912841796875
515.388,-0.250244140625
515.398,-0.274169921875
515.408,-0.247802734375
515.418,-0.17529296875
515.428,-0.0843505859375
515.438,-0.00868988037109375
515.448,0.031890869140625
515.458,0.040496826171875
515.467,0.032928466796875
515.477,0.01806640625
515.487,-0.0103988647460938
515.497,-0.06585693359375
515.507,-0.152099609375
515.517,-0.249267578125
515.527,-0.3203125
515.537,-0.336669921875
515.547,-0.29443359375
515.557,-0.21044921875
515.567,-0.116943359375
515.577,-0.04351806640625
515.587,0.000762462615966797
515.597,0.0186309814453125
515.607,0.00653457641601562
515.617,-0.04205322265625
515.627,-0.1220703125
515.637,-0.2135009765625
515.647,-0.291015625
515.657,-0.33740234375
515.665,-0.349853515625
515.675,-0.332275390625
515.685,-0.2841796875
515.695,-0.2021484375
515.705,-0.09185791015625
515.715,0.030426025390625
515.725,0.13720703125
515.735,0.1973876953125
515.745,0.18896484375
515.755,0.10552978515625
515.765,-0.041351318359375
515.775,-0.22265625
515.785,-0.39990234375
515.795,-0.5390625
515.805,-0.6220703125
515.815,-0.6474609375
515.825,-0.6181640625
515.835,-0.53564453125
515.845,-0.40625
515.855,-0.2474365234375
515.859,0.06256103515625
515.869,-0.059967041015625
515.879,-0.2225341796875
515.889,-0.385009765625
515.899,-0.4990234375
515.909,-0.53466796875
515.919,-0.49072265625
515.929,-0.38671875
515.939,-0.25732421875
515.949,-0.136474609375
515.959,-0.041473388671875
515.969,0.0263214111328125
515.979,0.06890869140625
515.989,0.0853271484375
515.999,0.0677490234375
516.009,0.00681304931640625
516.018,-0.09130859375
516.028,-0.201416015625
516.038,-0.291748046875
516.048,-0.333740234375
516.058,-0.314208984375
516.068,-0.2391357421875
516.078,-0.13037109375
516.088,-0.0265960693359375
516.098,0.02911376953125
516.108,0.00724029541015625
516.118,-0.098388671875
516.128,-0.264404296875
516.138,-0.439453125
516.148,-0.56787109375
516.158,-0.61572265625
516.168,-0.57421875
516.178,-0.450439453125
516.188,-0.2705078125
516.198,-0.0828857421875
516.208,0.054931640625
516.217,0.09637451171875
516.227,0.0268402099609375
516.237,-0.1270751953125
516.247,-0.308837890625
516.257,-0.45703125
516.267,-0.5361328125
516.277,-0.54736328125
516.287,-0.51171875
516.297,-0.450439453125
516.307,-0.37548828125
516.317,-0.292724609375
516.327,-0.2120361328125
516.337,-0.143798828125
516.347,-0.09149169921875
516.357,-0.05914306640625
516.367,-0.053558349609375
516.377,-0.07293701171875
516.387,-0.10284423828125
516.397,-0.1295166015625
516.407,-0.149658203125
516.415,-0.167236328125
516.425,-0.18701171875
516.435,-0.210205078125
516.445,-0.23095703125
516.455,-0.23828125
516.465,-0.226806640625
516.475,-0.2021484375
516.485,-0.1763916015625
516.495,-0.162109375
516.505,-0.165771484375
516.515,-0.1842041015625
516.525,-0.2073974609375
516.535,-0.223876953125
516.545,-0.2274169921875
516.555,-0.21875
516.565,-0.2022705078125
516.575,-0.1844482421875
516.585,-0.1690673828125
516.595,-0.1590576171875
516.605,-0.1605224609375
516.609,-0.1473388671875
516.619,-0.061370849609375
516.629,0.043792724609375
516.639,0.1331787109375
516.649,0.1700439453125
516.659,0.136962890625
516.669,0.045867919921875
516.679,-0.07501220703125
516.689,-0.2008056640625
516.699,-0.3125
516.709,-0.395751953125
516.719,-0.4384765625
516.729,-0.42724609375
516.739,-0.35205078125
516.749,-0.221923828125
516.759,-0.072509765625
516.768,0.04583740234375
516.778,0.09771728515625
516.788,0.07733154296875
516.798,0.000556468963623047
516.808,-0.10369873046875
516.818,-0.2060546875
516.828,-0.292236328125
516.838,-0.35302734375
516.848,-0.3740234375
516.858,-0.353515625
516.868,-0.311279296875
516.878,-0.271728515625
516.888,-0.256591796875
516.898,-0.271484375
516.908,-0.30078125
516.918,-0.323974609375
516.928,-0.326904296875
516.938,-0.2978515625
516.948,-0.236328125
516.958,-0.1573486328125
516.967,-0.07513427734375
516.977,-0.00249671936035156
516.987,0.0445556640625
516.997,0.05419921875
517.007,0.020965576171875
517.017,-0.049102783203125
517.027,-0.1278076171875
517.037,-0.1778564453125
517.047,-0.1746826171875
517.057,-0.11322021484375
517.067,-0.00983428955078125
517.077,0.10552978515625
517.087,0.2042236328125
517.097,0.26416015625
517.107,0.2783203125
517.117,0.255615234375
517.127,0.208251953125
517.137,0.1478271484375
517.147,0.09124755859375
517.157,0.05194091796875
517.165,0.03741455078125
517.175,0.0540771484375
517.185,0.1033935546875
517.195,0.1820068359375
517.205,0.283935546875
517.215,0.39404296875
517.225,0.48583984375
517.235,0.53076171875
517.245,0.50244140625
517.255,0.392333984375
517.265,0.219482421875
517.275,0.020355224609375
517.285,-0.1729736328125
517.295,-0.3447265625
517.305,-0.50390625
517.315,-0.67626953125
517.325,-0.86962890625
517.335,-1.05859375
517.345,-1.21484375
517.355,-1.3310546875
517.359,-1.3984375
517.369,-1.349609375
517.379,-1.302734375
517.389,-1.2568359375
517.399,-1.2255859375
517.409,-1.23046875
517.419,-1.2880859375
517.429,-1.3955078125
517.439,-1.548828125
517.449,-1.7509765625
517.459,-2.0078125
517.469,-2.298828125
517.479,-2.560546875
517.489,-2.685546875
517.499,-2.59765625
517.509,-2.310546875
517.518,-1.921875
517.528,-1.5390625
517.538,-1.2421875
517.548,-1.0517578125
517.558,-0.9404296875
517.568,-0.86865234375
517.578,-0.810546875
517.588,-0.75634765625
517.598,-0.71826171875
517.608,-0.71044921875
517.618,-0.74072265625
517.628,-0.81396484375
517.638,-0.92333984375
517.648,-1.052734375
517.658,-1.1787109375
517.668,-1.27734375
517.678,-1.3359375
517.688,-1.3515625
517.698,-1.33984375
517.708,-1.3232421875
517.717,-1.3212890625
517.727,-1.36328125
517.737,-1.4658203125
517.747,-1.603515625
517.757,-1.728515625
517.767,-1.80859375
517.777,-1.8251953125
517.787,-1.7763671875
517.797,-1.6806640625
517.807,-1.5634765625
517.817,-1.44921875
517.827,-1.365234375
517.837,-1.32421875
517.847,-1.322265625
517.857,-1.341796875
517.867,-1.353515625
517.877,-1.3330078125
517.887,-1.2822265625
517.897,-1.2109375
517.907,-1.12890625
517.915,-1.0537109375
517.925,-0.99169921875
517.935,-0.935546875
517.945,-0.88916015625
517.955,-0.8662109375
517.965,-0.87841796875
517.975,-0.931640625
517.985,-1.0146484375
517.995,-1.0986328125
518.005,-1.1640625
518.015,-1.2041015625
518.025,-1.20703125
518.035,-1.1806640625
518.045,-1.1435546875
518.055,-1.1083984375
518.065,-1.0830078125
518.075,-1.068359375
518.085,-1.05078125
518.095,-1.0283203125
518.105,-1.021484375
518.109,-1.1611328125
518.119,-1.1650390625
518.129,-1.15234375
518.139,-1.1337890625
518.149,-1.1044921875
518.159,-1.072265625
518.169,-1.056640625
518.179,-1.056640625
518.189,-1.056640625
518.199,-1.0517578125
518.209,-1.05078125
518.219,-1.052734375
518.229,-1.0537109375
518.239,-1.056640625
518.249,-1.0595703125
518.259,-1.0576171875
518.268,-1.0546875
518.278,-1.0537109375
518.288,-1.0517578125
518.298,-1.0498046875
518.308,-1.0458984375
518.318,-1.0361328125
518.328,-1.0185546875
518.338,-0.9921875
518.348,-0.96435546875
518.358,-0.9453125
518.368,-0.9384765625
518.378,-0.94287109375
518.388,-0.95703125
518.398,-0.97216796875
518.408,-0.9814453125
518.418,-0.97705078125
518.428,-0.955078125
518.438,-0.92333984375
518.448,-0.892578125
518.458,-0.8681640625
518.467,-0.85302734375
518.477,-0.84375
518.487,-0.82958984375
518.497,-0.81005859375
518.507,-0.7861328125
518.517,-0.76416015625
518.527,-0.751953125
518.537,-0.751953125
518.547,-0.76025390625
518.557,-0.77685546875
518.567,-0.79833984375
518.577,-0.82177734375
518.587,-0.845703125
518.597,-0.869140625
518.607,-0.88818359375
518.617,-0.90234375
518.627,-0.90869140625
518.637,-0.900390625
518.647,-0.87841796875
518.657,-0.84765625
518.665,-0.81103515625
518.675,-0.77099609375
518.685,-0.734375
518.695,-0.708984375
518.705,-0.69873046875
518.715,-0.703125
518.725,-0.71875
518.735,-0.73681640625
518.745,-0.74560546875
518.755,-0.73828125
518.765,-0.71435546875
518.775,-0.67431640625
518.785,-0.6259765625
518.795,-0.58349609375
518.805,-0.556640625
518.815,-0.54248046875
518.825,-0.5322265625
518.835,-0.52490234375
518.845,-0.521484375
518.855,-0.515625
518.859,-0.47216796875
518.869,-0.490234375
518.879,-0.52099609375
518.889,-0.55517578125
518.899,-0.5830078125
518.909,-0.60302734375
518.919,-0.61767578125
518.929,-0.625
518.939,-0.61669921875
518.949,-0.58642578125
518.959,-0.5400390625
518.969,-0.49169921875
518.979,-0.45751953125
518.989,-0.44384765625
518.999,-0.443359375
519.009,-0.443115234375
519.018,-0.438232421875
519.028,-0.4365234375
519.038,-0.44287109375
519.048,-0.44775390625
519.058,-0.4384765625
519.068,-0.41455078125
519.078,-0.38818359375
519.088,-0.375732421875
519.098,-0.385986328125
519.108,-0.414794921875
519.118,-0.448974609375
519.128,-0.467529296875
519.138,-0.4619140625
519.148,-0.44189453125
519.158,-0.41943359375
519.168,-0.390625
519.178,-0.338623046875
519.188,-0.2509765625
519.198,-0.143310546875
519.208,-0.05731201171875
519.216,-0.0150985717773438
519.226,0.012603759765625
519.236,0.057861328125
519.246,0.10498046875
519.256,0.11444091796875
519.266,0.08087158203125
519.276,0.047210693359375
519.286,0.054046630859375
519.296,0.08770751953125
519.306,0.0953369140625
519.316,0.0460205078125
519.326,-0.0369873046875
519.336,-0.10601806640625
519.346,-0.1424560546875
519.356,-0.172607421875
519.366,-0.229736328125
519.376,-0.30810546875
519.386,-0.365234375
519.396,-0.37158203125
519.406,-0.34521484375
519.415,-0.318115234375
519.425,-0.289794921875
519.435,-0.2371826171875
519.445,-0.1593017578125
519.455,-0.09765625
519.465,-0.10479736328125
519.475,-0.1922607421875
519.485,-0.3193359375
519.495,-0.439208984375
519.505,-0.54296875
519.515,-0.6455078125
519.525,-0.74560546875
519.535,-0.8125
519.545,-0.810546875
519.555,-0.7353515625
519.565,-0.626953125
519.575,-0.53759765625
519.585,-0.484375
519.595,-0.435791015625
519.605,-0.35546875
519.609,-0.06695556640625
519.619,-0.0269012451171875
519.629,0.035003662109375
519.639,0.08575439453125
519.649,0.08404541015625
519.659,0.0129318237304688
519.669,-0.094970703125
519.679,-0.1810302734375
519.689,-0.2196044921875
519.699,-0.231689453125
519.709,-0.235595703125
519.719,-0.2088623046875
519.729,-0.122802734375
519.739,0.00536727905273438
519.749,0.1195068359375
519.759,0.1727294921875
519.768,0.161865234375
519.778,0.1309814453125
519.788,0.1251220703125
519.798,0.1383056640625
519.808,0.125
519.818,0.052825927734375
519.828,-0.0677490234375
519.838,-0.1978759765625
519.848,-0.305908203125
519.858,-0.380859375
519.868,-0.409912109375
519.878,-0.368896484375
519.888,-0.258056640625
519.898,-0.117431640625
519.908,0.0172271728515625
519.918,0.146728515625
519.928,0.28173828125
519.938,0.400146484375
519.948,0.447998046875
519.958,0.388671875
519.966,0.244140625
519.976,0.08074951171875
519.986,-0.04150390625
519.996,-0.10595703125
520.006,-0.12371826171875
520.016,-0.1025390625
520.026,-0.04736328125
520.036,0.020233154296875
520.046,0.06512451171875
520.056,0.06622314453125
520.066,0.033935546875
520.076,-0.0120162963867188
520.086,-0.07757568359375
520.096,-0.1778564453125
520.106,-0.29052734375
520.116,-0.3681640625
520.126,-0.384521484375
520.136,-0.3447265625
520.146,-0.259521484375
520.156,-0.14013671875
520.165,-0.00129795074462891
520.175,0.138671875
520.185,0.257568359375
520.195,0.324951171875
520.205,0.313720703125
520.215,0.223876953125
520.225,0.08447265625
520.235,-0.06341552734375
520.245,-0.1875
520.255,-0.268798828125
520.265,-0.29296875
520.275,-0.254638671875
520.285,-0.175048828125
520.295,-0.087890625
520.305,-0.0148849487304688
520.315,0.034637451171875
520.325,0.050140380859375
520.335,0.0246734619140625
520.345,-0.0313720703125
520.355,-0.0946044921875
520.36,-0.16845703125
520.37,-0.134033203125
520.38,-0.095703125
520.39,-0.0634765625
520.4,-0.041351318359375
520.41,-0.0272216796875
520.42,-0.0148239135742188
520.43,0.00277328491210938
520.44,0.028961181640625
520.45,0.060455322265625
520.46,0.087646484375
520.47,0.1024169921875
520.48,0.1019287109375
520.49,0.08123779296875
520.5,0.036590576171875
520.51,-0.021575927734375
520.518,-0.07232666015625
520.528,-0.09881591796875
520.538,-0.09429931640625
520.548,-0.0618896484375
520.558,-0.0132293701171875
520.568,0.040557861328125
520.578,0.0986328125
520.588,0.15966796875
520.598,0.206787109375
520.608,0.2200927734375
520.618,0.2022705078125
520.628,0.1693115234375
520.638,0.1358642578125
520.648,0.11358642578125
520.658,0.1038818359375
520.668,0.0963134765625
520.678,0.081298828125
520.688,0.057891845703125
520.698,0.02935791015625
520.708,-0.0048980712890625
520.716,-0.045745849609375
520.726,-0.08416748046875
520.736,-0.10919189453125
520.746,-0.12548828125
520.756,-0.14404296875
520.766,-0.1571044921875
520.776,-0.1492919921875
520.786,-0.12335205078125
520.796,-0.09375
520.806,-0.06890869140625
520.816,-0.05438232421875
520.826,-0.05682373046875
520.836,-0.0718994140625
520.846,-0.082763671875
520.856,-0.08056640625
520.866,-0.07073974609375
520.876,-0.052642822265625
520.886,-0.018707275390625
520.896,0.0211029052734375
520.906,0.04718017578125
520.915,0.053558349609375
520.925,0.040069580078125
520.935,0.00765609741210938
520.945,-0.0291290283203125
520.955,-0.050628662109375
520.965,-0.053009033203125
520.975,-0.048797607421875
520.985,-0.045989990234375
520.995,-0.03643798828125
521.005,-0.0105743408203125
521.015,0.0312042236328125
521.025,0.08477783203125
521.035,0.140869140625
521.045,0.180908203125
521.055,0.186767578125
521.065,0.1513671875
521.075,0.07977294921875
521.085,-0.009002685546875
521.095,-0.09173583984375
521.105,-0.151611328125
521.109,-0.016998291015625
521.119,0.03375244140625
521.129,0.0753173828125
521.139,0.1060791015625
521.149,0.12432861328125
521.159,0.1334228515625
521.169,0.1407470703125
521.179,0.1483154296875
521.189,0.1497802734375
521.199,0.1405029296875
521.209,0.121826171875
521.219,0.09820556640625
521.229,0.0740966796875
521.239,0.05267333984375
521.249,0.036163330078125
521.259,0.03076171875
521.268,0.040985107421875
521.278,0.0574951171875
521.288,0.060516357421875
521.298,0.03741455078125
521.308,-0.0102996826171875
521.318,-0.06817626953125
521.328,-0.11480712890625
521.338,-0.1356201171875
521.348,-0.1318359375
521.358,-0.11260986328125
521.368,-0.0831298828125
521.378,-0.045806884765625
521.388,-0.00301170349121094
521.398,0.041534423828125
521.408,0.07891845703125
521.418,0.10015869140625
521.428,0.10540771484375
521.438,0.1015625
521.448,0.0927734375
521.458,0.07904052734375
521.466,0.05841064453125
521.476,0.0249176025390625
521.486,-0.02850341796875
521.496,-0.099365234375
521.506,-0.17041015625
521.516,-0.21923828125
521.526,-0.2353515625
521.536,-0.220703125
521.546,-0.1790771484375
521.556,-0.11749267578125
521.566,-0.0509033203125
521.576,0.00117969512939453
521.586,0.019744873046875
521.596,-0.0061187744140625
521.606,-0.06854248046875
521.616,-0.145751953125
521.626,-0.217529296875
521.636,-0.27099609375
521.646,-0.29833984375
521.656,-0.296142578125
521.665,-0.27001953125
521.675,-0.23388671875
521.685,-0.2044677734375
521.695,-0.1995849609375
521.705,-0.231201171875
521.715,-0.30029296875
521.725,-0.397705078125
521.735,-0.50927734375
521.745,-0.6328125
521.755,-0.7734375
521.765,-0.9111328125
521.775,-1.0078125
521.785,-1.0546875
521.795,-1.0810546875
521.805,-1.1123046875
521.815,-1.1396484375
521.825,-1.1416015625
521.835,-1.1201171875
521.845,-1.0869140625
521.855,-1.0556640625
521.86,-1.05078125
521.87,-1.0234375
521.88,-0.974609375
521.89,-0.91796875
521.9,-0.88037109375
521.91,-0.86181640625
521.92,-0.83935546875
521.93,-0.80712890625
521.94,-0.78369140625
521.95,-0.77978515625
521.96,-0.7802734375
521.97,-0.7734375
521.98,-0.765625
521.99,-0.75732421875
522,-0.73486328125
522.01,-0.6982421875
522.018,-0.6640625
522.028,-0.63671875
522.038,-0.60888671875
522.048,-0.58837890625
522.058,-0.59130859375
522.068,-0.6083984375
522.078,-0.6162109375
522.088,-0.6123046875
522.098,-0.62109375
522.108,-0.65625
522.118,-0.71142578125
522.128,-0.78076171875
522.138,-0.86083984375
522.148,-0.92822265625
522.158,-0.94580078125
522.168,-0.89501953125
522.178,-0.80126953125
522.188,-0.70458984375
522.198,-0.6240234375
522.208,-0.55810546875
522.216,-0.51513671875
522.226,-0.517578125
522.236,-0.56396484375
522.246,-0.61279296875
522.256,-0.61669921875
522.266,-0.57275390625
522.276,-0.5263671875
522.286,-0.5283203125
522.296,-0.57568359375
522.306,-0.61669921875
522.316,-0.6083984375
522.326,-0.5615234375
522.336,-0.53759765625
522.346,-0.5859375
522.356,-0.6953125
522.366,-0.79736328125
522.376,-0.830078125
522.386,-0.78271484375
522.396,-0.69189453125
522.406,-0.61279296875
522.415,-0.580078125
522.425,-0.58544921875
522.435,-0.5869140625
522.445,-0.541015625
522.455,-0.445068359375
522.465,-0.3486328125
522.475,-0.3115234375
522.485,-0.354248046875
522.495,-0.444091796875
522.505,-0.515625
522.515,-0.51708984375
522.525,-0.45068359375
522.535,-0.36962890625
522.545,-0.340576171875
522.555,-0.40185546875
522.565,-0.546875
522.575,-0.73095703125
522.585,-0.8876953125
522.595,-0.95654296875
522.605,-0.9052734375
522.609,0.0181732177734375
522.619,0.028900146484375
522.629,-0.030792236328125
522.639,-0.12347412109375
522.649,-0.217529296875
522.659,-0.2978515625
522.669,-0.364013671875
522.679,-0.410400390625
522.689,-0.4169921875
522.699,-0.368408203125
522.709,-0.275390625
522.719,-0.1759033203125
522.729,-0.11395263671875
522.739,-0.1087646484375
522.749,-0.144775390625
522.759,-0.1905517578125
522.768,-0.218505859375
522.778,-0.21630859375
522.788,-0.1927490234375
522.798,-0.158447265625
522.808,-0.109375
522.818,-0.035919189453125
522.828,0.05560302734375
522.838,0.134033203125
522.848,0.1580810546875
522.858,0.11151123046875
522.868,0.0197601318359375
522.878,-0.07781982421875
522.888,-0.1619873046875
522.898,-0.2354736328125
522.908,-0.304443359375
522.918,-0.363037109375
522.928,-0.391357421875
522.938,-0.370849609375
522.948,-0.303955078125
522.958,-0.20947265625
522.966,-0.10595703125
522.976,-0.00597000122070312
522.986,0.0782470703125
522.996,0.1297607421875
523.006,0.141845703125
523.016,0.132568359375
523.026,0.130615234375
523.036,0.1483154296875
523.046,0.1697998046875
523.056,0.166259765625
523.066,0.1275634765625
523.076,0.072509765625
523.086,0.0244140625
523.096,-0.013946533203125
523.106,-0.05426025390625
523.116,-0.1009521484375
523.126,-0.1395263671875
523.136,-0.148193359375
523.146,-0.125244140625
523.156,-0.0975341796875
523.165,-0.09576416015625
523.175,-0.11968994140625
523.185,-0.14208984375
523.195,-0.1490478515625
523.205,-0.1529541015625
523.215,-0.1617431640625
523.225,-0.1630859375
523.235,-0.144287109375
523.245,-0.11175537109375
523.255,-0.0787353515625
523.265,-0.04638671875
523.275,-0.00872039794921875
523.285,0.02728271484375
523.295,0.041961669921875
523.305,0.0284271240234375
523.315,0.00107574462890625
523.325,-0.02752685546875
523.335,-0.05596923828125
523.345,-0.0811767578125
523.355,-0.1026611328125
523.36,-0.177734375
523.37,-0.12017822265625
523.38,-0.03936767578125
523.39,0.0660400390625
523.4,0.18701171875
523.41,0.2900390625
523.42,0.33447265625
523.43,0.304931640625
523.44,0.2191162109375
523.45,0.10296630859375
523.46,-0.0228424072265625
523.47,-0.1341552734375
523.48,-0.2047119140625
523.49,-0.223388671875
523.5,-0.1966552734375
523.51,-0.1358642578125
523.518,-0.059539794921875
523.528,0.00121593475341797
523.538,0.025115966796875
523.548,0.0184783935546875
523.558,-0.00338172912597656
523.568,-0.027008056640625
523.578,-0.033447265625
523.588,-0.0062103271484375
523.598,0.05511474609375
523.608,0.1336669921875
523.618,0.1998291015625
523.628,0.2197265625
523.638,0.175537109375
523.648,0.082275390625
523.658,-0.026763916015625
523.668,-0.125732421875
523.678,-0.197021484375
523.688,-0.2275390625
523.698,-0.217041015625
523.708,-0.17578125
523.717,-0.1153564453125
523.727,-0.049102783203125
523.737,0.0138473510742188
523.747,0.071533203125
523.757,0.117919921875
523.767,0.14208984375
523.777,0.1395263671875
523.787,0.11285400390625
523.797,0.067138671875
523.807,0.011749267578125
523.817,-0.04229736328125
523.827,-0.084716796875
523.837,-0.103271484375
523.847,-0.08984375
523.857,-0.048980712890625
523.867,0.0069580078125
523.877,0.06396484375
523.887,0.11187744140625
523.897,0.1519775390625
523.907,0.1903076171875
523.916,0.228271484375
523.926,0.26904296875
523.936,0.315185546875
523.946,0.34716796875
523.956,0.316162109375
523.966,0.177734375
523.976,-0.0670166015625
523.986,-0.324951171875
523.996,-0.424560546875
524.006,-0.26220703125
524.016,0.0704345703125
524.026,0.3642578125
524.036,0.473876953125
524.046,0.43017578125
524.056,0.383544921875
524.066,0.416748046875
524.076,0.434326171875
524.086,0.264404296875
524.096,-0.1494140625
524.106,-0.65673828125
524.11,-0.1260986328125
524.12,-0.1339111328125
524.13,-0.22998046875
524.14,-0.17236328125
524.15,0.1759033203125
524.16,0.70361328125
524.17,1.125
524.18,1.1923828125
524.19,0.8466796875
524.2,0.23828125
524.21,-0.357177734375
524.22,-0.6728515625
524.23,-0.5693359375
524.24,-0.1031494140625
524.25,0.49560546875
524.26,0.94775390625
524.268,1.083984375
524.278,0.91015625
524.288,0.576171875
524.298,0.291259765625
524.308,0.2115478515625
524.318,0.344970703125
524.328,0.541015625
524.338,0.60107421875
524.348,0.419677734375
524.358,0.0269012451171875
524.368,-0.4677734375
524.378,-0.93408203125
524.388,-1.2626953125
524.398,-1.3837890625
524.408,-1.2568359375
524.418,-0.88525390625
524.428,-0.3466796875
524.438,0.204833984375
524.448,0.60302734375
524.458,0.7431640625
524.467,0.62109375
524.477,0.3125
524.487,-0.0745849609375
524.497,-0.4345703125
524.507,-0.6787109375
524.517,-0.74462890625
524.527,-0.619140625
524.537,-0.346923828125
524.547,-0.003143310546875
524.557,0.338623046875
524.567,0.60009765625
524.577,0.7060546875
524.587,0.61474609375
524.597,0.337890625
524.607,-0.07293701171875
524.617,-0.54248046875
524.627,-0.98486328125
524.637,-1.3310546875
524.647,-1.5400390625
524.657,-1.5966796875
524.665,-1.50390625
524.675,-1.283203125
524.685,-0.96728515625
524.695,-0.583984375
524.705,-0.1563720703125
524.715,0.289794921875
524.725,0.724609375
524.735,1.107421875
524.745,1.3974609375
524.755,1.564453125
524.765,1.5986328125
524.775,1.515625
524.785,1.3740234375
524.795,1.2392578125
524.805,1.150390625
524.815,1.115234375
524.825,1.1279296875
524.835,1.173828125
524.845,1.20703125
524.855,1.1591796875
524.86,-0.4765625
524.87,-0.71875
524.88,-0.82763671875
524.89,-0.82275390625
524.9,-0.75390625
524.91,-0.66943359375
524.92,-0.5947265625
524.93,-0.5380859375
524.94,-0.498291015625
524.95,-0.469970703125
524.96,-0.44970703125
524.97,-0.4306640625
524.98,-0.399658203125
524.99,-0.342041015625
525,-0.254150390625
525.01,-0.1475830078125
525.018,-0.041595458984375
525.028,0.048553466796875
525.038,0.1085205078125
525.048,0.1287841796875
525.058,0.1177978515625
525.068,0.08984375
525.078,0.0499267578125
525.088,0.00251007080078125
525.098,-0.04345703125
525.108,-0.08270263671875
525.118,-0.108154296875
525.128,-0.110107421875
525.138,-0.09918212890625
525.148,-0.09979248046875
525.158,-0.11407470703125
525.168,-0.1268310546875
525.178,-0.1353759765625
525.188,-0.1392822265625
525.198,-0.125
525.208,-0.0863037109375
525.217,-0.035003662109375
525.227,0.0159759521484375
525.237,0.059051513671875
525.247,0.0841064453125
525.257,0.081787109375
525.267,0.051483154296875
525.277,-0.00303077697753906
525.287,-0.07696533203125
525.297,-0.1572265625
525.307,-0.2225341796875
525.317,-0.259521484375
525.327,-0.275146484375
525.337,-0.283447265625
525.347,-0.286376953125
525.357,-0.27099609375
525.367,-0.232177734375
525.377,-0.182373046875
525.387,-0.1397705078125
525.397,-0.11700439453125
525.407,-0.12054443359375
525.416,-0.1419677734375
525.426,-0.159912109375
525.436,-0.1651611328125
525.446,-0.1685791015625
525.456,-0.177001953125
525.466,-0.186767578125
525.476,-0.1993408203125
525.486,-0.21337890625
525.496,-0.2125244140625
525.506,-0.1834716796875
525.516,-0.135498046875
525.526,-0.08929443359375
525.536,-0.060943603515625
525.546,-0.06097412109375
525.556,-0.08758544921875
525.566,-0.12225341796875
525.576,-0.1510009765625
525.586,-0.178955078125
525.596,-0.2098388671875
525.606,-0.2332763671875
525.61,-0.174072265625
525.62,-0.152587890625
525.63,-0.1370849609375
525.64,-0.1251220703125
525.65,-0.11346435546875
525.66,-0.09661865234375
525.67,-0.08074951171875
525.68,-0.08636474609375
525.69,-0.12298583984375
525.7,-0.17431640625
525.71,-0.2174072265625
525.72,-0.2403564453125
525.73,-0.2384033203125
525.74,-0.213623046875
525.75,-0.177001953125
525.76,-0.1346435546875
525.768,-0.0877685546875
525.778,-0.0479736328125
525.788,-0.0283203125
525.798,-0.021697998046875
525.808,-0.0146102905273438
525.818,-0.00714111328125
525.828,-0.00407791137695312
525.838,-0.0125656127929688
525.848,-0.044403076171875
525.858,-0.10040283203125
525.868,-0.1710205078125
525.878,-0.251953125
525.888,-0.336669921875
525.898,-0.40283203125
525.908,-0.426513671875
525.918,-0.406982421875
525.928,-0.3564453125
525.938,-0.281494140625
525.948,-0.1925048828125
525.958,-0.1153564453125
525.967,-0.07037353515625
525.977,-0.054046630859375
525.987,-0.050140380859375
525.997,-0.035186767578125
526.007,0.0109405517578125
526.017,0.07672119140625
526.027,0.1295166015625
526.037,0.1595458984375
526.047,0.1756591796875
526.057,0.1728515625
526.067,0.1441650390625
526.077,0.09515380859375
526.087,0.022857666015625
526.097,-0.0828857421875
526.107,-0.209228515625
526.117,-0.322509765625
526.127,-0.4033203125
526.137,-0.45751953125
526.147,-0.486083984375
526.157,-0.4697265625
526.165,-0.3955078125
526.175,-0.2802734375
526.185,-0.1527099609375
526.195,-0.03131103515625
526.205,0.0709228515625
526.215,0.14453125
526.225,0.1805419921875
526.235,0.164306640625
526.245,0.09625244140625
526.255,0.012451171875
526.265,-0.037750244140625
526.275,-0.02923583984375
526.285,0.039276123046875
526.295,0.1597900390625
526.305,0.297119140625
526.315,0.376953125
526.325,0.330810546875
526.335,0.155029296875
526.345,-0.09075927734375
526.355,-0.324462890625
526.36,-0.53662109375
526.37,-0.4365234375
526.38,-0.305908203125
526.39,-0.1658935546875
526.4,-0.03045654296875
526.41,0.08355712890625
526.42,0.1485595703125
526.43,0.1585693359375
526.44,0.146484375
526.45,0.1396484375
526.46,0.1275634765625
526.47,0.09625244140625
526.48,0.058441162109375
526.49,0.03277587890625
526.5,0.0157318115234375
526.51,-0.00927734375
526.518,-0.04705810546875
526.528,-0.08660888671875
526.538,-0.11981201171875
526.548,-0.1575927734375
526.558,-0.2169189453125
526.568,-0.28515625
526.578,-0.323486328125
526.588,-0.312744140625
526.598,-0.268310546875
526.608,-0.2049560546875
526.618,-0.12005615234375
526.628,-0.0204925537109375
526.638,0.067138671875
526.648,0.130126953125
526.658,0.178466796875
526.668,0.210205078125
526.678,0.2030029296875
526.688,0.1463623046875
526.698,0.051971435546875
526.708,-0.065673828125
526.717,-0.198974609375
526.727,-0.341552734375
526.737,-0.473876953125
526.747,-0.5498046875
526.757,-0.52294921875
526.767,-0.399658203125
526.777,-0.2265625
526.787,-0.041534423828125
526.797,0.1258544921875
526.807,0.2327880859375
526.817,0.2496337890625
526.827,0.1944580078125
526.837,0.11663818359375
526.847,0.056304931640625
526.857,0.021728515625
526.867,-0.00349235534667969
526.877,-0.029388427734375
526.887,-0.04718017578125
526.897,-0.056976318359375
526.907,-0.08245849609375
526.911,-0.47265625
526.921,-0.4521484375
526.931,-0.381591796875
526.941,-0.27490234375
526.951,-0.1572265625
526.961,-0.059600830078125
526.971,-0.00351715087890625
526.981,0.00067901611328125
526.991,-0.051513671875
527.001,-0.1612548828125
527.011,-0.329345703125
527.021,-0.5390625
527.031,-0.74755859375
527.041,-0.92236328125
527.051,-1.0615234375
527.061,-1.1728515625
527.069,-1.267578125
527.079,-1.34375
527.089,-1.384765625
527.099,-1.3818359375
527.109,-1.3525390625
527.119,-1.3095703125
527.129,-1.2451171875
527.139,-1.146484375
527.149,-1.0146484375
527.159,-0.87890625
527.169,-0.79638671875
527.179,-0.83251953125
527.189,-1.017578125
527.199,-1.3193359375
527.209,-1.6435546875
527.219,-1.8740234375
527.229,-1.9384765625
527.239,-1.8525390625
527.249,-1.708984375
527.259,-1.5869140625
527.268,-1.501953125
527.278,-1.4365234375
527.288,-1.3681640625
527.298,-1.29296875
527.308,-1.2333984375
527.318,-1.2109375
527.328,-1.236328125
527.338,-1.2958984375
527.348,-1.3583984375
527.358,-1.3916015625
527.368,-1.3779296875
527.378,-1.3125
527.388,-1.2099609375
527.398,-1.091796875
527.408,-0.98046875
527.418,-0.89111328125
527.428,-0.83642578125
527.438,-0.82421875
527.448,-0.8447265625
527.458,-0.88232421875
527.467,-0.93798828125
527.477,-1.0107421875
527.487,-1.0771484375
527.497,-1.1103515625
527.507,-1.10546875
527.517,-1.0654296875
527.527,-1
527.537,-0.939453125
527.547,-0.90966796875
527.557,-0.92138671875
527.567,-0.9716796875
527.577,-1.044921875
527.587,-1.1181640625
527.597,-1.16796875
527.607,-1.1826171875
527.617,-1.1640625
527.627,-1.123046875
527.637,-1.0693359375
527.647,-1.013671875
527.657,-0.9609375
527.661,-0.93994140625
527.671,-0.9677734375
527.681,-0.984375
527.691,-0.98876953125
527.701,-0.98046875
527.711,-0.966796875
527.721,-0.95751953125
527.731,-0.9580078125
527.741,-0.9755859375
527.751,-1.0107421875
527.761,-1.0546875
527.771,-1.095703125
527.781,-1.126953125
527.791,-1.134765625
527.801,-1.111328125
527.811,-1.0654296875
527.819,-1.0205078125
527.829,-0.9892578125
527.839,-0.97314453125
527.849,-0.96875
527.859,-0.97607421875
527.869,-0.9921875
527.879,-1.005859375
527.889,-1.0126953125
527.899,-1.009765625
527.909,-0.98974609375
527.919,-0.94287109375
527.929,-0.87841796875
527.939,-0.81884765625
527.949,-0.77978515625
527.959,-0.76171875
527.969,-0.76123046875
527.979,-0.77490234375
527.989,-0.796875
527.999,-0.8125
528.009,-0.8115234375
528.018,-0.79443359375
528.028,-0.76611328125
528.038,-0.73046875
528.048,-0.6962890625
528.058,-0.673828125
528.068,-0.6728515625
528.078,-0.69580078125
528.088,-0.7314453125
528.098,-0.76416015625
528.108,-0.787109375
528.118,-0.8046875
528.128,-0.8154296875
528.138,-0.8046875
528.148,-0.759765625
528.158,-0.68505859375
528.168,-0.6064453125
528.178,-0.548828125
528.188,-0.517578125
528.198,-0.5009765625
528.208,-0.4970703125
528.217,-0.513671875
528.227,-0.556640625
528.237,-0.61474609375
528.247,-0.66455078125
528.257,-0.68994140625
528.267,-0.6904296875
528.277,-0.6728515625
528.287,-0.63720703125
528.297,-0.58251953125
528.307,-0.517578125
528.317,-0.464599609375
528.327,-0.4423828125
528.337,-0.455078125
528.347,-0.485595703125
528.357,-0.50537109375
528.367,-0.489013671875
528.377,-0.42724609375
528.387,-0.338623046875
528.397,-0.25341796875
528.407,-0.18896484375
528.411,-0.362548828125
528.421,-0.5712890625
528.431,-0.81982421875
528.441,-1.0634765625
528.451,-1.2548828125
528.461,-1.357421875
528.471,-1.3681640625
528.481,-1.30078125
528.491,-1.1640625
528.501,-0.974609375
528.511,-0.75537109375
528.521,-0.53125
528.531,-0.31103515625
528.541,-0.09918212890625
528.551,0.08502197265625
528.561,0.2054443359375
528.569,0.2398681640625
528.579,0.20654296875
528.589,0.1531982421875
528.599,0.1143798828125
528.609,0.083740234375
528.619,0.034881591796875
528.629,-0.034576416015625
528.639,-0.09613037109375
528.649,-0.128662109375
528.659,-0.1387939453125
528.669,-0.13623046875
528.679,-0.1142578125
528.689,-0.06793212890625
528.699,-0.0142822265625
528.709,0.0223388671875
528.719,0.040802001953125
528.729,0.060394287109375
528.739,0.08294677734375
528.749,0.07928466796875
528.759,0.02490234375
528.768,-0.06536865234375
528.778,-0.1492919921875
528.788,-0.1953125
528.798,-0.19775390625
528.808,-0.16259765625
528.818,-0.0977783203125
528.828,-0.0177764892578125
528.838,0.057861328125
528.848,0.11260986328125
528.858,0.1337890625
528.868,0.11376953125
528.878,0.055572509765625
528.888,-0.0212554931640625
528.898,-0.0867919921875
528.908,-0.12139892578125
528.918,-0.1197509765625
528.928,-0.08428955078125
528.938,-0.0281524658203125
528.948,0.0284576416015625
528.958,0.07244873046875
528.967,0.10064697265625
528.977,0.11309814453125
528.987,0.10968017578125
528.997,0.094482421875
529.007,0.07342529296875
529.017,0.04168701171875
529.027,-0.0140151977539062
529.037,-0.09521484375
529.047,-0.1856689453125
529.057,-0.263427734375
529.067,-0.311279296875
529.077,-0.32177734375
529.087,-0.30078125
529.097,-0.25732421875
529.107,-0.201416015625
529.117,-0.152587890625
529.127,-0.1263427734375
529.137,-0.11865234375
529.147,-0.11676025390625
529.157,-0.12310791015625
529.161,-0.2744140625
529.171,-0.252685546875
529.181,-0.2025146484375
529.191,-0.1461181640625
529.201,-0.10797119140625
529.211,-0.08905029296875
529.221,-0.0792236328125
529.231,-0.0758056640625
529.241,-0.07281494140625
529.251,-0.0567626953125
529.261,-0.0261383056640625
529.271,0.0068817138671875
529.281,0.034210205078125
529.291,0.05267333984375
529.301,0.055084228515625
529.311,0.038818359375
529.319,0.0121994018554688
529.329,-0.019989013671875
529.339,-0.0572509765625
529.349,-0.08758544921875
529.359,-0.09368896484375
529.369,-0.07586669921875
529.379,-0.048919677734375
529.389,-0.0202484130859375
529.399,0.0113067626953125
529.409,0.037994384765625
529.419,0.038177490234375
529.429,-0.00165081024169922
529.439,-0.06817626953125
529.449,-0.1383056640625
529.459,-0.2012939453125
529.469,-0.252685546875
529.479,-0.2900390625
529.489,-0.320068359375
529.499,-0.349365234375
529.509,-0.37060546875
529.518,-0.376220703125
529.528,-0.3720703125
529.538,-0.375244140625
529.548,-0.39892578125
529.558,-0.43994140625
529.568,-0.47998046875
529.578,-0.5
529.588,-0.496826171875
529.598,-0.48193359375
529.608,-0.45947265625
529.618,-0.418701171875
529.628,-0.352783203125
529.638,-0.26513671875
529.648,-0.158447265625
529.658,-0.041229248046875
529.668,0.06976318359375
529.678,0.16015625
529.688,0.2095947265625
529.698,0.1954345703125
529.708,0.1258544921875
529.717,0.03363037109375
529.727,-0.06890869140625
529.737,-0.1910400390625
529.747,-0.323486328125
529.757,-0.42578125
529.767,-0.451416015625
529.777,-0.374755859375
529.787,-0.1981201171875
529.797,0.04779052734375
529.807,0.30712890625
529.817,0.51806640625
529.827,0.63818359375
529.837,0.650390625
529.847,0.56103515625
529.857,0.405029296875
529.867,0.23583984375
529.877,0.08978271484375
529.887,-0.0292510986328125
529.897,-0.125244140625
529.907,-0.1903076171875
529.911,0.09124755859375
529.921,0.1905517578125
529.931,0.2568359375
529.941,0.275634765625
529.951,0.2486572265625
529.961,0.1864013671875
529.971,0.10247802734375
529.981,0.0155715942382812
529.991,-0.051727294921875
530.001,-0.08612060546875
530.011,-0.08782958984375
530.021,-0.06268310546875
530.031,-0.0196685791015625
530.041,0.0252838134765625
530.051,0.05230712890625
530.061,0.0482177734375
530.069,0.0105667114257812
530.079,-0.05029296875
530.089,-0.107421875
530.099,-0.137451171875
530.109,-0.148681640625
530.119,-0.1688232421875
530.129,-0.20849609375
530.139,-0.25146484375
530.149,-0.275146484375
530.159,-0.272216796875
530.169,-0.256591796875
530.179,-0.2474365234375
530.189,-0.2481689453125
530.199,-0.2481689453125
530.209,-0.2425537109375
530.219,-0.239013671875
530.229,-0.2427978515625
530.239,-0.251708984375
530.249,-0.264404296875
530.259,-0.27783203125
530.268,-0.289306640625
530.278,-0.308837890625
530.288,-0.34619140625
530.298,-0.378662109375
530.308,-0.35302734375
530.318,-0.2320556640625
530.328,-0.042144775390625
530.338,0.13671875
530.348,0.2244873046875
530.358,0.18359375
530.368,0.04180908203125
530.378,-0.11083984375
530.388,-0.1719970703125
530.398,-0.10162353515625
530.408,0.0477294921875
530.418,0.1676025390625
530.428,0.162841796875
530.438,0.008056640625
530.448,-0.2354736328125
530.458,-0.458251953125
530.467,-0.57470703125
530.477,-0.5654296875
530.487,-0.464599609375
530.497,-0.32568359375
530.507,-0.1805419921875
530.517,-0.0325927734375
530.527,0.1104736328125
530.537,0.2254638671875
530.547,0.290771484375
530.557,0.297607421875
530.567,0.23876953125
530.577,0.1134033203125
530.587,-0.056549072265625
530.597,-0.221923828125
530.607,-0.32568359375
530.617,-0.33935546875
530.627,-0.27685546875
530.637,-0.1732177734375
530.647,-0.059112548828125
530.657,0.0460205078125
530.661,0.177001953125
530.671,0.132568359375
530.681,0.07244873046875
530.691,0.00521469116210938
530.701,-0.05657958984375
530.711,-0.09967041015625
530.721,-0.1134033203125
530.731,-0.09649658203125
530.741,-0.06298828125
530.751,-0.03387451171875
530.761,-0.0215911865234375
530.771,-0.028472900390625
530.781,-0.050384521484375
530.791,-0.07763671875
530.801,-0.10296630859375
530.811,-0.12744140625
530.819,-0.1514892578125
530.829,-0.17041015625
530.839,-0.18017578125
530.849,-0.1800537109375
530.859,-0.1656494140625
530.869,-0.1324462890625
530.879,-0.08489990234375
530.889,-0.034393310546875
530.899,0.0124282836914062
530.909,0.051025390625
530.919,0.069580078125
530.929,0.056732177734375
530.939,0.0168914794921875
530.949,-0.034454345703125
530.959,-0.0880126953125
530.969,-0.1402587890625
530.979,-0.1807861328125
530.989,-0.196533203125
530.999,-0.1864013671875
531.009,-0.1619873046875
531.018,-0.13232421875
531.028,-0.09881591796875
531.038,-0.06573486328125
531.048,-0.044281005859375
531.058,-0.03826904296875
531.068,-0.04046630859375
531.078,-0.04638671875
531.088,-0.05694580078125
531.098,-0.066650390625
531.108,-0.06475830078125
531.118,-0.048919677734375
531.128,-0.0258026123046875
531.138,-0.00211715698242188
531.148,0.0188751220703125
531.158,0.0357666015625
531.168,0.047210693359375
531.178,0.051055908203125
531.188,0.045867919921875
531.198,0.031219482421875
531.208,0.00351905822753906
531.215,-0.040740966796875
531.225,-0.099609375
531.235,-0.167724609375
531.245,-0.2344970703125
531.255,-0.281005859375
531.265,-0.293701171875
531.275,-0.27734375
531.285,-0.24267578125
531.295,-0.19189453125
531.305,-0.1300048828125
531.315,-0.06939697265625
531.325,-0.0203704833984375
531.335,0.0145263671875
531.345,0.03399658203125
531.355,0.035919189453125
531.365,0.0204620361328125
531.375,-0.00984954833984375
531.385,-0.050018310546875
531.395,-0.09210205078125
531.405,-0.1295166015625
531.41,-0.2320556640625
531.42,-0.228515625
531.43,-0.216064453125
531.44,-0.1922607421875
531.45,-0.1546630859375
531.46,-0.106201171875
531.47,-0.05877685546875
531.48,-0.02459716796875
531.49,-0.0100631713867188
531.5,-0.0142135620117188
531.51,-0.0284271240234375
531.52,-0.04541015625
531.53,-0.06427001953125
531.54,-0.0819091796875
531.55,-0.09320068359375
531.56,-0.09857177734375
531.569,-0.098876953125
531.579,-0.09051513671875
531.589,-0.07403564453125
531.599,-0.05560302734375
531.609,-0.039215087890625
531.619,-0.03045654296875
531.629,-0.036529541015625
531.639,-0.051910400390625
531.649,-0.059967041015625
531.659,-0.054962158203125
531.669,-0.042510986328125
531.679,-0.023651123046875
531.689,-0.00123977661132812
531.699,0.01055908203125
531.709,0.00502395629882812
531.719,-0.00620651245117188
531.729,-0.01629638671875
531.739,-0.0308074951171875
531.749,-0.045196533203125
531.759,-0.04638671875
531.768,-0.039154052734375
531.778,-0.04156494140625
531.788,-0.05413818359375
531.798,-0.060089111328125
531.808,-0.0579833984375
531.818,-0.0693359375
531.828,-0.1109619140625
531.838,-0.1778564453125
531.848,-0.251220703125
531.858,-0.31591796875
531.868,-0.364013671875
531.878,-0.380859375
531.888,-0.344482421875
531.898,-0.247314453125
531.908,-0.10723876953125
531.918,0.0428466796875
531.928,0.166015625
531.938,0.2218017578125
531.948,0.17724609375
531.958,0.0301055908203125
531.965,-0.18212890625
531.975,-0.38818359375
531.985,-0.5126953125
531.995,-0.52099609375
532.005,-0.4375
532.015,-0.3330078125
532.025,-0.2744140625
532.035,-0.283203125
532.045,-0.33056640625
532.055,-0.371826171875
532.065,-0.384765625
532.075,-0.36962890625
532.085,-0.3193359375
532.095,-0.220703125
532.105,-0.08331298828125
532.115,0.05902099609375
532.125,0.173583984375
532.135,0.249267578125
532.145,0.2919921875
532.155,0.297607421875
532.16,-0.50537109375
532.17,-0.59423828125
532.18,-0.56982421875
532.19,-0.462890625
532.2,-0.32763671875
532.21,-0.20654296875
532.22,-0.11859130859375
532.23,-0.06494140625
532.24,-0.04058837890625
532.25,-0.04486083984375
532.26,-0.0753173828125
532.27,-0.1119384765625
532.28,-0.12939453125
532.29,-0.113037109375
532.3,-0.05401611328125
532.31,0.0384521484375
532.319,0.12396240234375
532.329,0.154541015625
532.339,0.10601806640625
532.349,-0.011077880859375
532.359,-0.156005859375
532.369,-0.2734375
532.379,-0.317626953125
532.389,-0.271728515625
532.399,-0.1566162109375
532.409,-0.02105712890625
532.419,0.07952880859375
532.429,0.11041259765625
532.439,0.069580078125
532.449,-0.0186767578125
532.459,-0.11505126953125
532.469,-0.18359375
532.479,-0.212646484375
532.489,-0.21435546875
532.499,-0.2093505859375
532.509,-0.2171630859375
532.518,-0.24951171875
532.528,-0.298828125
532.538,-0.34228515625
532.548,-0.351806640625
532.558,-0.306884765625
532.568,-0.201904296875
532.578,-0.054290771484375
532.588,0.09808349609375
532.598,0.2083740234375
532.608,0.2369384765625
532.618,0.164794921875
532.628,0.00288200378417969
532.638,-0.2130126953125
532.648,-0.43896484375
532.658,-0.63427734375
532.668,-0.76123046875
532.678,-0.796875
532.688,-0.744140625
532.698,-0.62353515625
532.708,-0.457763671875
532.715,-0.2744140625
532.725,-0.1107177734375
532.735,-0.000987052917480469
532.745,0.035369873046875
532.755,-0.00214576721191406
532.765,-0.09228515625
532.775,-0.2017822265625
532.785,-0.298828125
532.795,-0.35498046875
532.805,-0.348876953125
532.815,-0.278564453125
532.825,-0.1590576171875
532.835,-0.0162353515625
532.845,0.1168212890625
532.855,0.20556640625
532.865,0.220458984375
532.875,0.1451416015625
532.885,-0.0179595947265625
532.895,-0.246337890625
532.905,-0.5029296875
532.91,-1.013671875
532.92,-0.85888671875
532.93,-0.63427734375
532.94,-0.373779296875
532.95,-0.11505126953125
532.96,0.09954833984375
532.97,0.2337646484375
532.98,0.26904296875
532.99,0.2022705078125
533,0.046844482421875
533.01,-0.1646728515625
533.02,-0.394287109375
533.03,-0.607421875
533.04,-0.7705078125
533.05,-0.857421875
533.06,-0.86181640625
533.069,-0.7919921875
533.079,-0.6630859375
533.089,-0.4912109375
533.099,-0.29541015625
533.109,-0.12103271484375
533.119,-0.05450439453125
533.129,-0.148193359375
533.139,-0.34619140625
533.149,-0.55859375
533.159,-0.72021484375
533.169,-0.75830078125
533.179,-0.62451171875
533.189,-0.335205078125
533.199,0.049713134765625
533.209,0.438232421875
533.219,0.72314453125
533.229,0.83935546875
533.239,0.78759765625
533.249,0.58984375
533.259,0.275146484375
533.268,-0.07513427734375
533.278,-0.34326171875
533.288,-0.47509765625
533.298,-0.50537109375
533.308,-0.4716796875
533.318,-0.3857421875
533.328,-0.2763671875
533.338,-0.1883544921875
533.348,-0.1536865234375
533.358,-0.170166015625
533.368,-0.1993408203125
533.378,-0.177490234375
533.388,-0.033203125
533.398,0.263427734375
533.408,0.6376953125
533.418,0.93359375
533.428,1.0185546875
533.438,0.87060546875
533.448,0.57275390625
533.458,0.259033203125
533.465,0.042327880859375
533.475,-0.046630859375
533.485,-0.06854248046875
533.495,-0.1217041015625
533.505,-0.28125
533.515,-0.55615234375
533.525,-0.8759765625
533.535,-1.1083984375
533.545,-1.111328125
533.555,-0.82666015625
533.565,-0.33203125
533.575,0.251708984375
533.585,0.82568359375
533.595,1.27734375
533.605,1.4736328125
533.615,1.3310546875
533.625,0.8857421875
533.635,0.28515625
533.645,-0.27880859375
533.655,-0.654296875
533.66,-0.06463623046875
533.67,0.10772705078125
533.68,0.21826171875
533.69,0.233154296875
533.7,0.12445068359375
533.71,-0.09930419921875
533.72,-0.38037109375
533.73,-0.6435546875
533.74,-0.82861328125
533.75,-0.89599609375
533.76,-0.8349609375
533.77,-0.67138671875
533.78,-0.453369140625
533.79,-0.2386474609375
533.8,-0.0792236328125
533.81,-0.00534439086914062
533.819,-0.0306854248046875
533.829,-0.168212890625
533.839,-0.421142578125
533.849,-0.7666015625
533.859,-1.140625
533.869,-1.4453125
533.879,-1.6015625
533.889,-1.5986328125
533.899,-1.478515625
533.909,-1.2861328125
533.919,-1.056640625
533.929,-0.83642578125
533.939,-0.68310546875
533.949,-0.640625
533.959,-0.7080078125
533.969,-0.83984375
533.979,-0.97607421875
533.989,-1.0625
533.999,-1.0654296875
534.009,-0.99169921875
534.018,-0.87744140625
534.028,-0.76123046875
534.038,-0.6611328125
534.048,-0.5888671875
534.058,-0.57275390625
534.068,-0.62890625
534.078,-0.736328125
534.088,-0.86083984375
534.098,-0.98583984375
534.108,-1.0927734375
534.118,-1.1474609375
534.128,-1.1318359375
534.138,-1.0673828125
534.148,-0.9892578125
534.158,-0.9150390625
534.168,-0.85400390625
534.178,-0.8134765625
534.188,-0.79638671875
534.198,-0.80517578125
534.208,-0.84375
534.215,-0.90283203125
534.225,-0.9599609375
534.235,-0.99609375
534.245,-1.0009765625
534.255,-0.978515625
534.265,-0.9375
534.275,-0.892578125
534.285,-0.85693359375
534.295,-0.83837890625
534.305,-0.83251953125
534.315,-0.83203125
534.325,-0.833984375
534.335,-0.8349609375
534.345,-0.83447265625
534.355,-0.8330078125
534.365,-0.8251953125
534.375,-0.8046875
534.385,-0.77685546875
534.395,-0.75341796875
534.405,-0.744140625
534.41,-1.0166015625
534.42,-1.072265625
534.43,-1.068359375
534.44,-1.005859375
534.45,-0.90234375
534.46,-0.7822265625
534.47,-0.6708984375
534.48,-0.58935546875
534.49,-0.55322265625
534.5,-0.5615234375
534.51,-0.58642578125
534.52,-0.59423828125
534.53,-0.57470703125
534.54,-0.53173828125
534.55,-0.473876953125
534.56,-0.4130859375
534.569,-0.36181640625
534.579,-0.322509765625
534.589,-0.29052734375
534.599,-0.26220703125
534.609,-0.233642578125
534.619,-0.202392578125
534.629,-0.1695556640625
534.639,-0.1448974609375
534.649,-0.14453125
534.659,-0.17724609375
534.669,-0.242919921875
534.679,-0.343505859375
534.689,-0.4716796875
534.699,-0.59765625
534.709,-0.68505859375
534.719,-0.71826171875
534.729,-0.70556640625
534.739,-0.66552734375
534.749,-0.615234375
534.759,-0.56640625
534.768,-0.52587890625
534.778,-0.497802734375
534.788,-0.49560546875
534.798,-0.52978515625
534.808,-0.583984375
534.818,-0.63037109375
534.828,-0.65478515625
534.838,-0.6455078125
534.848,-0.58642578125
534.858,-0.4833984375
534.868,-0.371826171875
534.878,-0.283447265625
534.888,-0.2257080078125
534.898,-0.1922607421875
534.908,-0.173095703125
534.918,-0.1572265625
534.928,-0.1385498046875
534.938,-0.11322021484375
534.948,-0.07611083984375
534.958,-0.02789306640625
534.965,0.020294189453125
534.975,0.052490234375
534.985,0.0614013671875
534.995,0.05010986328125
535.005,0.0254364013671875
535.015,-0.00295257568359375
535.025,-0.0257720947265625
535.035,-0.03948974609375
535.045,-0.046783447265625
535.055,-0.054168701171875
535.065,-0.06329345703125
535.075,-0.068359375
535.085,-0.07171630859375
535.095,-0.08636474609375
535.105,-0.11712646484375
535.115,-0.15625
535.125,-0.185791015625
535.135,-0.18017578125
535.145,-0.1337890625
535.155,-0.07232666015625
535.16,-0.213623046875
535.17,-0.335205078125
535.18,-0.44677734375
535.19,-0.517578125
535.2,-0.52294921875
535.21,-0.458251953125
535.22,-0.338623046875
535.23,-0.1961669921875
535.24,-0.06854248046875
535.25,0.017913818359375
535.26,0.054718017578125
535.27,0.047271728515625
535.28,0.00677490234375
535.29,-0.061065673828125
535.3,-0.1505126953125
535.31,-0.2469482421875
535.319,-0.3349609375
535.329,-0.40185546875
535.339,-0.431884765625
535.349,-0.414306640625
535.359,-0.34814453125
535.369,-0.2413330078125
535.379,-0.11505126953125
535.389,-0.00270462036132812
535.399,0.06903076171875
535.409,0.096435546875
535.419,0.0965576171875
535.429,0.09002685546875
535.439,0.08441162109375
535.449,0.07794189453125
535.459,0.0699462890625
535.469,0.057342529296875
535.479,0.030426025390625
535.489,-0.019683837890625
535.499,-0.08990478515625
535.509,-0.162841796875
535.517,-0.2135009765625
535.527,-0.2193603515625
535.537,-0.1729736328125
535.547,-0.08660888671875
535.557,0.016937255859375
535.567,0.1124267578125
535.577,0.1788330078125
535.587,0.210693359375
535.597,0.2164306640625
535.607,0.2027587890625
535.617,0.1707763671875
535.627,0.12274169921875
535.637,0.0633544921875
535.647,0.00207138061523438
535.657,-0.041656494140625
535.667,-0.049072265625
535.677,-0.027618408203125
535.687,-0.0132675170898438
535.697,-0.0321044921875
535.707,-0.0723876953125
535.715,-0.10565185546875
535.725,-0.11944580078125
535.735,-0.11871337890625
535.745,-0.11083984375
535.755,-0.099365234375
535.765,-0.08721923828125
535.775,-0.07501220703125
535.785,-0.06134033203125
535.795,-0.050567626953125
535.805,-0.05181884765625
535.815,-0.064208984375
535.825,-0.07666015625
535.835,-0.082763671875
535.845,-0.08538818359375
535.855,-0.08843994140625
535.865,-0.09527587890625
535.875,-0.10919189453125
535.885,-0.1280517578125
535.895,-0.14306640625
535.905,-0.1414794921875
535.91,0.09185791015625
535.92,0.06561279296875
535.93,0.0107421875
535.94,-0.048065185546875
535.95,-0.09503173828125
535.96,-0.127685546875
535.97,-0.14013671875
535.98,-0.12432861328125
535.99,-0.08831787109375
536,-0.05224609375
536.01,-0.02899169921875
536.02,-0.01812744140625
536.03,-0.0179595947265625
536.04,-0.028045654296875
536.05,-0.0421142578125
536.06,-0.0546875
