Time,GyroX
539.605,34.370002746582
539.615,9.69000053405762
539.625,-27.7200012207031
539.635,-2.87000012397766
539.645,-3.08000016212463
539.655,-34.0500030517578
539.657,-4.41000032424927
539.667,5.95000028610229
539.677,15.1200008392334
539.687,50.5000038146973
539.697,6.65000009536743
539.707,7.21000051498413
539.717,3.99000024795532
539.727,-12.5600004196167
539.737,13.7900009155273
539.747,25.6900005340576
539.757,10.1500005722046
539.767,-4.69000005722046
539.777,-11.1300001144409
539.787,11.9000005722046
539.797,17.5300006866455
539.807,5.95000028610229
539.817,0
539.827,-12.8100004196167
539.837,4.62000036239624
539.846,5.21000003814697
539.856,23.2000007629395
539.866,31.7800006866455
539.876,27.4400005340576
539.886,32.2700004577637
539.896,-10.8500003814697
539.906,-1.36000001430511
539.916,28.8400020599365
539.926,16.1700000762939
539.936,11.4100008010864
539.946,-0.380000025033951
539.956,-19.8400001525879
539.966,-6.40000009536743
539.976,24.4600009918213
539.986,17.25
539.996,6.75000047683716
540.006,-38.8500022888184
540.016,-41.7900009155273
540.026,8.78000068664551
540.035,26.1400012969971
540.045,12.6000003814697
540.055,-15.5700006484985
540.065,25.1600017547607
540.075,47.3500022888184
540.085,21.0300006866455
540.095,20.3700008392334
540.105,4.37000036239624
540.115,25.5100021362305
540.125,58.5500030517578
540.135,25.7200012207031
540.145,-22.1500015258789
540.155,-38.9200019836426
540.165,-44.060001373291
540.175,-3.15000009536743
540.185,28.5900020599365
540.195,20.0500011444092
540.205,16.4099998474121
540.215,18.8600006103516
540.225,18.0200004577637
540.234,33
540.244,-10.5000009536743
540.254,5.53000020980835
540.264,21.730001449585
540.274,33.7400016784668
540.284,21.2100009918213
540.294,23.8300018310547
540.304,17.4600009918213
540.314,46.3400039672852
540.324,39.5800018310547
540.334,44.6900024414062
540.344,49.1400032043457
540.354,40.5300025939941
540.364,32.5800018310547
540.374,-6.58000040054321
540.384,-10.7400007247925
540.394,-49.4900016784668
540.404,-74.7200012207031
540.414,-47.1400032043457
540.424,-14.3800010681152
540.428,43.0800018310547
540.438,60.5800018310547
540.448,69.4400024414062
540.458,73.8100051879883
540.468,37.5200004577637
540.478,2.03000020980835
540.488,-10.710000038147
540.498,-10.4300003051758
540.508,12.2500009536743
540.518,-27.0900020599365
540.528,-5.21000003814697
540.538,20.3000011444092
540.548,28.4900016784668
540.558,28.9400005340576
540.568,4.72000026702881
540.578,-2.83000016212463
540.586,28.3500022888184
540.596,25.5800018310547
540.606,6.72000026702881
540.616,3.22000026702881
540.626,0.910000026226044
540.636,11.3400001525879
540.646,47.9800033569336
540.656,47.4900016784668
540.666,55.0900039672852
540.676,44.5900039672852
540.686,58.6600036621094
540.696,37.620002746582
540.706,31.7400016784668
540.716,27.7500019073486
540.726,-17.7400016784668
540.736,-57.5000038146973
540.746,-32.370002746582
540.756,-32.4400024414062
540.766,-0.630000054836273
540.776,-4.90000009536743
540.785,1.85000014305115
540.795,37.5500030517578
540.805,56.6600036621094
540.815,76.5800018310547
540.825,58.9000015258789
540.835,17.3600006103516
540.845,12.9800004959106
540.855,13.7200002670288
540.865,-14.9400005340576
540.875,-17.3900012969971
540.885,-33.5300025939941
540.895,-29.8500022888184
540.905,-1.22000002861023
540.915,23.4500007629395
540.925,36.120002746582
540.935,21.2100009918213
540.945,25.4400005340576
540.955,13.3300008773804
540.965,11.7900009155273
540.975,0.700000047683716
540.984,14.0000009536743
540.994,21.0300006866455
541.004,43.0100021362305
541.014,71.6800003051758
541.024,91.5600051879883
541.034,88.8600006103516
541.044,81.6500015258789
541.054,86.7300033569336
541.064,95.7200012207031
541.074,71.1900024414062
541.084,44.3800010681152
541.094,16.310001373291
541.104,-23.6200008392334
541.114,-35.7700004577637
541.124,-59.7400016784668
541.134,-87.0400009155273
541.144,-71.5699996948242
541.154,-78.8200073242188
541.164,-42.7000007629395
541.174,-18.3400001525879
541.178,97.890007019043
541.188,58.0300025939941
541.198,39.7900009155273
541.208,47.3500022888184
541.218,28.4200019836426
541.228,41.8200035095215
541.238,37.7600021362305
541.248,33.2100028991699
541.258,55.2600021362305
541.268,70.4900054931641
541.278,74.1300048828125
541.288,88.0200042724609
541.298,39.1600036621094
541.308,21.9100017547607
541.318,0.910000026226044
541.328,-65.1700057983398
541.336,-71.5400009155273
541.346,-110.040008544922
541.356,-108.950004577637
541.366,-105.980003356934
541.376,-93.3100051879883
541.386,-54.180004119873
541.396,-17.0100002288818
541.406,4.44000005722046
541.416,45.9200019836426
541.426,67.8600006103516
541.436,102.620002746582
541.446,119.730003356934
541.456,116.690002441406
541.466,126.560005187988
541.476,131.490005493164
541.486,103.910003662109
541.496,81.8300018310547
541.506,61.180004119873
541.516,37.3800010681152
541.526,31.2500019073486
541.535,21.8700008392334
541.545,-22.4700012207031
541.555,-54.2100028991699
541.565,-69.7200012207031
541.575,-97.3000030517578
541.585,-114.130004882812
541.595,-118.790008544922
541.605,-124.910003662109
541.615,-102.340003967285
541.625,-58.4500045776367
541.635,-18.5500011444092
541.645,37.0300025939941
541.655,96.7000045776367
541.665,138.25
541.675,174.370010375977
541.685,187.18000793457
541.695,178.670013427734
541.705,183.220001220703
541.715,134.330001831055
541.725,82.8400039672852
541.734,39.620002746582
541.744,-6.30000019073486
541.754,-40.1100006103516
541.764,-73.5699996948242
541.774,-134.050003051758
541.784,-143.220001220703
541.794,-144.09001159668
541.804,-99.2900009155273
541.814,-61.7400016784668
541.824,-67.4800033569336
541.834,-76.75
541.844,-75.2100067138672
541.854,-60.370002746582
541.864,-25.0900020599365
541.874,-10.2900009155273
541.884,-29.4700012207031
541.894,-33.5300025939941
541.904,-14.2800006866455
541.914,-19.3200016021729
541.924,-5.49000024795532
541.928,-66.8500061035156
541.938,-29.1900005340576
541.948,2.62000012397766
541.958,46.4100036621094
541.968,98.3100051879883
541.978,145.070007324219
541.988,172.580001831055
541.998,188.720016479492
542.008,202.540008544922
542.018,227.040008544922
542.028,262.360015869141
542.038,293.050018310547
542.048,311.040008544922
542.058,313.950012207031
542.068,273.630004882812
542.078,201.040008544922
542.086,152.18000793457
542.096,102.230003356934
542.106,62.0500030517578
542.116,45.7100028991699
542.126,46.8600006103516
542.136,35.5900001525879
542.146,-21.5200004577637
542.156,-82.9100036621094
542.166,-143.040008544922
542.176,-198.900009155273
542.186,-252.280014038086
542.196,-286.580017089844
542.206,-279.440002441406
542.216,-228.690017700195
542.226,-118.400009155273
542.236,-7.07000017166138
542.246,73.25
542.256,157.220001220703
542.266,224.560012817383
542.276,272.400024414062
542.285,279.400024414062
542.295,222.110015869141
542.305,173.630004882812
542.315,143.080001831055
542.325,98.9100036621094
542.335,61.180004119873
542.345,32.7600021362305
542.355,17.1500015258789
542.365,-15.9200010299683
542.375,-51.620002746582
542.385,-36.1900024414062
542.395,69.5400009155273
542.405,118.370002746582
542.415,77.870002746582
542.425,43.6400032043457
542.435,19.3900012969971
542.445,81.1300048828125
542.455,134.080001831055
542.465,76.6800003051758
542.475,13.4400005340576
542.484,-73.2200012207031
542.494,-182.700012207031
542.504,-223.790008544922
542.514,-256.160003662109
542.524,-374.390014648438
542.534,-397.070007324219
542.544,-340.790008544922
542.554,-258.75
542.564,-69.1900024414062
542.574,83.370002746582
542.584,152.700012207031
542.594,209.120010375977
542.604,219.100006103516
542.614,229.280014038086
542.624,217.980010986328
542.634,176.500015258789
542.644,71.1500015258789
542.654,-93.0600051879883
542.664,-247.59001159668
542.674,-246.850006103516
542.678,48.3000030517578
542.688,137.34001159668
542.698,253.640014648438
542.708,333.510009765625
542.718,347.510009765625
542.728,341.280029296875
542.738,347.370025634766
542.748,310.690002441406
542.758,245.420013427734
542.768,200.34001159668
542.778,170.760009765625
542.788,130.200012207031
542.798,124.560005187988
542.808,112.17000579834
542.818,56.9400024414062
542.828,36.2200012207031
542.836,30.3800010681152
542.846,-5.95000028610229
542.856,-12.3500003814697
542.866,-56.3800010681152
542.876,-117.840003967285
542.886,-133.490005493164
542.896,-151.09001159668
542.906,-149.130004882812
542.916,-118.190002441406
542.926,-77.6600036621094
542.936,-20.6100006103516
542.946,37.2700004577637
542.956,63.0300025939941
542.966,56.6300010681152
542.976,30.060001373291
542.986,-17.0100002288818
542.996,-100.060005187988
543.006,-172.760009765625
543.016,-213.080017089844
543.026,-227.780014038086
543.035,-211.330017089844
543.045,-192.640014648438
543.055,-155.850006103516
543.065,-88.9000015258789
543.075,-20.7500019073486
543.085,49.560001373291
543.095,97.0500030517578
543.105,127.470008850098
543.115,146.75
543.125,149.940002441406
543.135,147.940002441406
543.145,150.360000610352
543.155,146.050003051758
543.165,156.34001159668
543.175,183.050003051758
543.185,211.820007324219
543.195,195.960006713867
543.205,166.350006103516
543.215,139.400009155273
543.225,112.070007324219
543.234,91.3500061035156
543.244,68.6000061035156
543.254,50.9900016784668
543.264,9.0600004196167
543.274,-20.5400009155273
543.284,-26.1400012969971
543.294,-96.5300064086914
543.304,-141.330001831055
543.314,-194.490005493164
543.324,-227.320007324219
543.334,-216.370010375977
543.344,-219.550003051758
543.354,-224.280014038086
543.364,-162.540008544922
543.374,-106.050003051758
543.384,-74.2300033569336
543.394,-9.55000019073486
543.404,21.5900001525879
543.414,36.3300018310547
543.424,85.7100067138672
543.428,61.6000022888184
543.438,58.4500045776367
543.448,62.7500038146973
543.458,47.7400016784668
543.468,26.9100017547607
543.478,15.5000009536743
543.488,-4.58000040054321
543.498,-18.0900001525879
543.508,4.58000040054321
543.518,10.5300006866455
543.528,2.52000021934509
543.538,28.4200019836426
543.548,41.1900024414062
543.558,51.2700042724609
543.568,70.8000030517578
543.578,78.2900009155273
543.586,69.120002746582
543.596,72.5200042724609
543.606,77.0300064086914
543.616,69.4400024414062
543.626,77.8400039672852
543.636,82.8800048828125
543.646,72.9700012207031
543.656,73.640007019043
543.666,54.6300010681152
543.676,31.6700019836426
543.686,31.4600009918213
543.696,24.7800006866455
543.706,9.10000038146973
543.716,8.57000064849854
543.726,-8.01000022888184
543.736,-7.52000045776367
543.746,17.3600006103516
543.756,15.0500011444092
543.766,-1.47000002861023
543.776,-12.2500009536743
543.785,-20.8600006103516
543.795,-0.980000019073486
543.805,12.2100009918213
543.815,0.660000026226044
543.825,-2.34000015258789
543.835,7.38000011444092
543.845,14.4900007247925
543.855,15.7800006866455
543.865,-8.85000038146973
543.875,-16.1700000762939
543.885,-8.92000007629395
543.895,-7.10000038146973
543.905,-17.3200016021729
543.915,-18.0200004577637
543.925,-8.75
543.935,4.93000030517578
543.945,7.49000024795532
543.955,-2.69000005722046
543.965,-23.8000011444092
543.975,-19.4600009918213
543.978,0.770000040531158
543.988,2.83000016212463
543.998,20.4000015258789
544.008,37.620002746582
544.018,36.3300018310547
544.028,24.9900016784668
544.038,5.25000047683716
544.048,4.93000030517578
544.058,21.9400005340576
544.068,21.1700000762939
544.078,-5.18000030517578
544.088,-12.8400001525879
544.098,-12.2100009918213
544.108,-7.28000020980835
544.118,-5.14000034332275
544.128,-12.3500003814697
544.138,-13.4700002670288
544.147,1.6100001335144
544.157,2.13000011444092
544.167,9.83000087738037
544.177,13.6800003051758
544.187,24.1500015258789
544.197,33.9099998474121
544.207,32.2700004577637
544.217,31.1500015258789
544.227,22.5000019073486
544.237,20.3000011444092
544.247,11.0900001525879
544.257,-6.8600001335144
544.267,6.79000043869019
544.277,7.28000020980835
544.287,-7.73000049591064
544.297,-11.0600004196167
544.307,-1.29000008106232
544.317,2.06000018119812
544.327,15.6100006103516
544.336,-0.560000002384186
544.346,-5.07000017166138
544.356,17.6700000762939
544.366,13.5800008773804
544.376,9.8700008392334
544.386,11.3000001907349
544.396,4.93000030517578
544.406,21.2800006866455
544.416,21.2400016784668
544.426,0.380000025033951
544.436,2.97000002861023
544.446,13.4700002670288
544.456,10.1500005722046
544.466,9.8700008392334
544.476,-3.67000007629395
544.486,-3.85000014305115
544.496,5.1100001335144
544.506,0.21000000834465
544.516,9.27000045776367
544.526,15.0100011825562
544.535,4.97000026702881
544.545,12.8800010681152
544.555,25.3400020599365
544.565,13.4400005340576
544.575,-4.58000040054321
544.585,-1.00999999046326
544.595,19
544.605,39.4400024414062
544.615,17.3200016021729
544.625,-1.47000002861023
544.635,0.240000009536743
544.645,9.69000053405762
544.655,13.7200002670288
544.665,-4.69000005722046
544.675,-21.4500007629395
544.685,-3.3600001335144
544.695,-1.99000012874603
544.705,-8.22000026702881
544.715,-4.34000015258789
544.725,-19.8800010681152
544.728,8.5
544.738,9.34000015258789
544.748,10.4300003051758
544.758,24.2900009155273
544.768,14.5600004196167
544.778,21.6600017547607
544.788,27.4000015258789
544.798,14.6300010681152
544.808,6.26000022888184
544.818,1.57000005245209
544.828,-2.52000021934509
544.838,-0.100000001490116
544.848,-2.87000012397766
544.858,-4.69000005722046
544.868,4.79000043869019
544.878,10.8500003814697
544.888,1.64000010490417
544.897,-5.14000034332275
544.907,1.85000014305115
544.917,-8.47000026702881
544.927,-14.5900011062622
544.937,-2.83000016212463
544.947,-6.96000051498413
544.957,-2.87000012397766
544.967,5.98000049591064
544.977,-3.39000010490417
544.987,2.69000005722046
544.997,6.93000030517578
545.007,-2.48000001907349
545.017,3.67000007629395
545.027,8.15000057220459
545.037,2.80000019073486
545.047,14.5200004577637
545.057,13.0500001907349
545.067,2.90000009536743
545.077,14.7000007629395
545.086,8.43000030517578
545.096,3.1800000667572
545.106,17.0400009155273
545.116,10.0100002288818
545.126,3.81000018119812
545.136,9.03000068664551
545.146,3.88000011444092
545.156,2.20000004768372
545.166,11.5100002288818
545.176,10.7400007247925
545.186,0.490000009536743
545.196,20.4700012207031
545.206,14.5900011062622
545.216,28.4900016784668
545.226,26.0400009155273
545.236,16.2000007629395
545.246,27.7200012207031
545.256,25.230001449585
545.266,8.57000064849854
545.276,5.70000028610229
545.285,-1.15000009536743
545.295,-11.5500001907349
545.305,-8.82000064849854
545.315,-23.8700008392334
545.325,-32.4099998474121
545.335,-5.60000038146973
545.345,1.08000004291534
545.355,-1.92000007629395
545.365,11.0900001525879
545.375,20.8600006103516
545.385,18.230001449585
545.395,22.1900005340576
545.405,5.95000028610229
545.415,-3.3600001335144
545.425,8.82000064849854
545.435,0.450000017881393
545.445,-18.2700004577637
545.455,-10.5700006484985
545.465,3.78000020980835
545.475,4.83000040054321
545.48,59.0800018310547
545.49,43.0100021362305
545.5,36.7800025939941
545.51,71.4700012207031
545.52,77.2400054931641
545.53,79.3800048828125
545.54,76.890007019043
545.55,61.1100044250488
545.56,83.120002746582
545.57,70.4500045776367
545.58,55.120002746582
545.59,39.8600006103516
545.6,31.9900016784668
545.61,26.6000003814697
545.62,6.72000026702881
545.63,-17.3600006103516
545.637,-26.4200019836426
545.647,-24.9200019836426
545.657,-19.9100017547607
545.667,-9.97000026702881
545.677,-4.93000030517578
545.687,23.4100017547607
545.697,37.0300025939941
545.707,43.5400009155273
545.717,56.9100036621094
545.727,50.1900024414062
545.737,40.810001373291
545.747,30.8300018310547
545.757,14.0700006484985
545.767,-5.5600004196167
545.777,-16.5500011444092
545.787,-18.480001449585
545.797,-36.5400009155273
545.807,-41.4400024414062
545.817,-38.1100006103516
545.827,-25.9700012207031
545.836,8.28999996185303
545.846,48.2300033569336
545.856,80.3600006103516
545.866,122.500007629395
545.876,147.940002441406
545.886,139.580001831055
545.896,139.160003662109
545.906,118.190002441406
545.916,53.930004119873
545.926,-23.6900005340576
545.936,-123.860008239746
545.946,-190.220016479492
545.956,-220.500015258789
545.966,-219.730010986328
545.976,-197.330001831055
545.986,-170.170013427734
545.996,-106.610008239746
546.006,-51.9700012207031
546.016,-1.57000005245209
546.026,64.3600006103516
546.035,93.7600021362305
546.045,116.580001831055
546.055,144.09001159668
546.065,139.889999389648
546.075,120.400009155273
546.085,104.650001525879
546.095,83.6100006103516
546.105,60.6500015258789
546.115,62.930004119873
546.125,71.1900024414062
546.135,92.2600021362305
546.145,125.160003662109
546.155,135.100006103516
546.165,122.640007019043
546.175,120.080009460449
546.185,98.7700042724609
546.195,50.8200035095215
546.205,18.0200004577637
546.215,-30.8700008392334
546.225,-60.5800018310547
546.229,12.2500009536743
546.239,25.6200008392334
546.249,33
546.259,41.120002746582
546.269,41.8600006103516
546.279,29.5700016021729
546.289,39.5500030517578
546.299,46.4100036621094
546.309,57.6100044250488
546.319,86.8000030517578
546.329,115.110008239746
546.339,113.360008239746
546.349,99.2600021362305
546.359,69.5400009155273
546.369,25.7900009155273
546.379,-9.55000019073486
546.389,-49.7000007629395
546.397,-143.389999389648
546.407,-180.350006103516
546.417,-204.990005493164
546.427,-182.350006103516
546.437,-143.740005493164
546.447,-109.620002746582
546.457,-77.5200042724609
546.467,-43.1900024414062
546.477,-16.310001373291
546.487,-2.24000000953674
546.497,13.5400009155273
546.507,13.7900009155273
546.517,-10.8100004196167
546.527,-21.0700016021729
546.537,-43.2600021362305
546.547,-76.6800003051758
546.557,-92.8500061035156
546.567,-97.5100021362305
546.577,-101.780006408691
546.586,-101.360008239746
546.596,-97.3000030517578
546.606,-101.01000213623
546.616,-89.140007019043
546.626,-58.4800033569336
546.636,-42.0700035095215
546.646,-30.9400005340576
546.656,-2.45000004768372
546.666,21.8400001525879
546.676,44.5500030517578
546.686,59.7800025939941
546.696,81.6900024414062
546.706,78.0100021362305
546.716,74.9300003051758
546.726,91.0000076293945
546.736,85.0500030517578
546.746,72.620002746582
546.756,76.3300018310547
546.766,77.3100051879883
546.776,68.5300064086914
546.785,61.6700019836426
546.795,57.9200019836426
546.805,42.6300010681152
546.815,36.75
546.825,62.2300033569336
546.835,57.7800025939941
546.845,58.4800033569336
546.855,62.6500015258789
546.865,52.8800010681152
546.875,45.2500038146973
546.885,72.2700042724609
546.895,86.3800048828125
546.905,90.0900039672852
546.915,127.150009155273
546.925,172.440002441406
546.935,223.370010375977
546.945,272.75
546.955,301.910003662109
546.965,309.540008544922
546.975,332.740020751953
546.978,251.860015869141
546.988,205.970016479492
546.998,157.150009155273
547.008,97.5800018310547
547.018,31.810001373291
547.028,-13.8200006484985
547.038,-44.7300033569336
547.048,-61.7000045776367
547.058,-85.5400009155273
547.068,-108.040008544922
547.078,-109.440002441406
547.088,-99.2200012207031
547.098,-86.5900039672852
547.108,-56.4900016784668
547.118,-2.13000011444092
547.128,36.3300018310547
547.138,76.0200042724609
547.147,92.7500076293945
547.157,72.8000030517578
547.167,44.1300010681152
547.177,15.0100011825562
547.187,-22.7100009918213
547.197,-63.560001373291
547.207,-100.130004882812
547.217,-107.76000213623
547.227,-88.2700042724609
547.237,-61.0400047302246
547.247,-7.63000059127808
547.257,21.1700000762939
547.267,46.3000030517578
547.277,67.4400024414062
547.287,83.370002746582
547.297,80.1500015258789
547.307,44.2000007629395
547.317,13.7500009536743
547.327,-12.0700006484985
547.336,-40.7000007629395
547.346,-61.7000045776367
547.356,-81.9700012207031
547.366,-93.9400024414062
547.376,-78.6800003051758
547.386,-36.9200019836426
547.396,8.53999996185303
547.406,28.5900020599365
547.416,11.3700008392334
547.426,20.9600009918213
547.436,31.810001373291
547.446,12.5600004196167
547.456,-12.8100004196167
547.466,-28.3800010681152
547.476,-39.0900001525879
547.486,-64.7800064086914
547.496,-92.2600021362305
547.506,-100.730003356934
547.516,-107.380004882812
547.526,-116.020004272461
547.535,-93.9700012207031
547.545,-71.3300018310547
547.555,-65.9700012207031
547.565,-51.3400039672852
547.575,-27.2600021362305
547.585,-4.30000019073486
547.595,8.99000072479248
547.605,21.560001373291
547.615,51.2000007629395
547.625,81.2700042724609
547.635,107.200004577637
547.645,135.690002441406
547.655,154.59001159668
547.665,172.790008544922
547.675,174.120010375977
547.685,162.710006713867
547.695,113.220008850098
547.705,52.6400032043457
547.715,1.4300000667572
547.725,-58.2400016784668
547.729,-152.420013427734
547.739,-94.8100051879883
547.749,-31.5000019073486
547.759,24.7400016784668
547.769,69.5100021362305
547.779,113.850006103516
547.789,161.450012207031
547.799,186.620010375977
547.809,236.210006713867
547.819,259.800018310547
547.829,267.050018310547
547.839,262.640014648438
547.849,270.720001220703
547.859,265.860015869141
547.869,228.690017700195
547.879,210.380004882812
547.889,178.390014648438
547.897,69.0900039672852
547.907,-10.2900009155273
547.917,-58.1000022888184
547.927,-79.2400054931641
547.937,-104.160003662109
547.947,-128.310012817383
547.957,-120.220008850098
547.967,-84.5200042724609
547.977,-23.9700012207031
547.987,10.8500003814697
547.997,40.4200019836426
548.007,68.140007019043
548.017,89.2800064086914
548.027,67.0200042724609
548.037,28.2400016784668
548.047,-20.5800018310547
548.057,-82.4900054931641
548.067,-126.17000579834
548.077,-181.230010986328
548.086,-219.800003051758
548.096,-236.040008544922
548.106,-217.770004272461
548.116,-150.43000793457
548.126,-77.4200057983398
548.136,-32.0900001525879
548.146,-17.0799999237061
548.156,-0.420000016689301
548.166,28.310001373291
548.176,57.7800025939941
548.186,60.8600044250488
548.196,53.6500015258789
548.206,51.5900039672852
548.216,54.8800010681152
548.226,86.3100051879883
548.236,137.09001159668
548.246,209.860015869141
548.256,269.460021972656
548.266,300.720001220703
548.276,351.470031738281
548.284,360.600006103516
548.294,326.230010986328
548.304,272.02001953125
548.314,210.450012207031
548.324,163.870010375977
548.334,142.170013427734
548.344,113.500007629395
548.354,83.120002746582
548.364,97.1900024414062
548.374,100.340003967285
548.384,132.260009765625
548.394,100.450004577637
548.404,57.7800025939941
548.414,14.6600008010864
548.424,-22.4000015258789
548.434,-60.8300018310547
548.444,-124.910003662109
548.454,-172.93000793457
548.464,-183.68000793457
548.474,-166.040008544922
548.478,-114.130004882812
548.488,-110.460006713867
548.498,-120.290008544922
548.508,-109.690002441406
548.518,-111.650001525879
548.528,-108.850006103516
548.538,-74.7200012207031
548.548,-21.5900001525879
548.558,12.6300010681152
548.568,32.6900024414062
548.578,37.3800010681152
548.588,46.3400039672852
548.598,42.2100028991699
548.608,38.25
548.618,35.3800010681152
548.628,46.4400024414062
548.637,63.2100028991699
548.647,74.8600006103516
548.657,79.4800033569336
548.667,88.2700042724609
548.677,90.3300018310547
548.687,93.3100051879883
548.697,72.5200042724609
548.707,51.060001373291
548.717,37.1000022888184
548.727,39.7900009155273
548.737,43.120002746582
548.747,39.0200004577637
548.757,19.6000003814697
548.767,-5.32000017166138
548.777,-29.2600021362305
548.787,-49.310001373291
548.797,-56.9800033569336
548.807,-47.9500007629395
548.817,-34.4000015258789
548.827,-22.8500003814697
548.836,-20.0200004577637
548.846,-2.97000002861023
548.856,35.1700019836426
548.866,84.5600051879883
548.876,107.060005187988
548.886,105.770004272461
548.896,81.2300033569336
548.906,62.120002746582
548.916,57.3600044250488
548.926,62.120002746582
548.936,57.0500030517578
548.946,21.6300010681152
548.956,-35.7000007629395
548.966,-90.120002746582
548.976,-110.910003662109
548.986,-124.770004272461
548.996,-153.960006713867
549.006,-174.370010375977
549.016,-160.400009155273
549.026,-105.770004272461
549.034,-59.3200035095215
549.044,-7.87000036239624
549.054,31.2200012207031
549.064,57.6400032043457
549.074,85.0500030517578
549.084,125.890007019043
549.094,170.450012207031
549.104,213.780014038086
549.114,245.380004882812
549.124,276.430023193359
549.134,288.540008544922
549.144,311.010009765625
549.154,327.180023193359
549.164,333.410003662109
549.174,316.190002441406
549.184,315.420013427734
549.194,307.890014648438
549.204,256.300018310547
549.214,180.040008544922
549.224,64.4000015258789
549.228,-175.210006713867
549.238,-200.550003051758
549.248,-196.980010986328
549.258,-187.040008544922
549.268,-194.880004882812
549.278,-198.100006103516
549.288,-179.620010375977
549.298,-134.960006713867
549.308,-79.5500030517578
549.318,-50.2900009155273
549.328,-36.4000015258789
549.338,-17.6700000762939
549.348,13.3700008392334
549.358,45.2200012207031
549.368,49.9800033569336
549.378,45.4600028991699
549.387,45.3600006103516
549.397,67.8300018310547
549.407,85.5000076293945
549.417,91.0700073242188
549.427,90.9300079345703
549.437,105.240005493164
549.447,114.310005187988
549.457,130.760009765625
549.467,132.610000610352
549.477,123.76000213623
549.487,106.01000213623
549.497,101.500007629395
549.507,103.840003967285
549.517,108.780006408691
549.527,101.640007019043
549.537,93.3400039672852
549.547,100.200004577637
549.557,111.820007324219
549.567,111.26000213623
549.577,92.7800064086914
549.586,64.5699996948242
549.596,57.120002746582
549.606,63.9100036621094
549.616,49.1700019836426
549.626,22.7100009918213
549.636,23.6200008392334
549.646,43.6400032043457
549.656,48.8600006103516
549.666,52.0400009155273
549.676,37.9000015258789
549.686,32.2700004577637
549.696,20.6100006103516
549.706,-1.26000010967255
549.716,-31.810001373291
549.726,-39.0900001525879
549.736,-69.75
549.746,-106.850006103516
549.756,-116.300003051758
549.766,-105.980003356934
549.776,-95.3000030517578
549.784,-74.370002746582
549.794,-45.6000022888184
549.804,-1.29000008106232
549.814,27.2600021362305
549.824,41.8900032043457
549.834,67.0600051879883
549.844,81.4800033569336
549.854,89.5300064086914
549.864,85.3600006103516
549.874,82.0000076293945
549.884,78.8500061035156
549.894,54.8400039672852
549.904,34.1900024414062
549.914,11.4400005340576
549.924,7.00000047683716
549.934,-21.980001449585
549.944,-28.5200004577637
549.954,-18.9000015258789
549.964,-2.59000015258789
549.974,-2.03000020980835
549.978,-11.0600004196167
549.988,-14.1400003433228
549.998,-14.2100009918213
550.008,-7.28000020980835
550.018,2.62000012397766
550.028,33.4900016784668
550.038,61.1400032043457
550.048,87.640007019043
550.058,108.500007629395
550.068,121.270004272461
550.078,114.690002441406
550.088,118.720008850098
550.098,130.020004272461
550.108,133.940002441406
550.118,144.720001220703
550.128,143.670013427734
550.137,128.100006103516
550.147,127.990005493164
550.157,121.900009155273
550.167,93.0600051879883
550.177,71.75
550.187,53.9700012207031
550.197,0.450000017881393
550.207,-56.2800025939941
550.217,-95.8300018310547
550.227,-121.410003662109
550.237,-123.51000213623
550.247,-123.620002746582
550.257,-93.1700057983398
550.267,-63.2400016784668
550.277,-53.9700012207031
550.287,-44.0300025939941
550.297,-1.64000010490417
550.307,37.310001373291
550.317,58.9700012207031
550.327,71.6100006103516
550.336,72.2400054931641
550.346,54.0400009155273
550.356,34.6500015258789
550.366,33.6000022888184
550.376,18.5100002288818
550.386,-11.0600004196167
550.396,-17.1100006103516
550.406,0.490000009536743
550.416,6.51000022888184
550.426,0.770000040531158
550.436,-1.36000001430511
550.446,-7.70000028610229
550.456,-12.2500009536743
550.466,-16.730001449585
550.476,1.85000014305115
550.486,18.9300003051758
550.496,34.0900001525879
550.506,72.1000061035156
550.516,116.300003051758
550.526,101.43000793457
550.534,59.2900009155273
550.544,43.9900016784668
550.554,34.5100021362305
550.564,-3.15000009536743
550.574,-30.3400020599365
550.584,-50.680004119873
550.594,-68.390007019043
550.604,-63.8000030517578
550.614,-31.810001373291
550.624,-28.4900016784668
550.634,-14.7700004577637
550.644,21.0300006866455
550.654,50.0800018310547
550.664,47.1100006103516
550.674,45.6000022888184
550.684,35.1400032043457
550.694,25.9000015258789
550.704,15.5700006484985
550.714,3.95000028610229
550.724,-1.75000011920929
550.728,25.8300018310547
550.738,42.2400016784668
550.748,47.810001373291
550.758,25.9000015258789
550.768,7.66000032424927
550.778,3.15000009536743
550.788,-10.0400009155273
550.798,-17.6700000762939
550.808,0.910000026226044
550.818,15.4300003051758
550.828,9.83000087738037
550.838,24.1500015258789
550.848,33.0400009155273
550.858,-10.7800006866455
550.868,-40.2500038146973
550.878,-47.3900032043457
550.887,-61.180004119873
550.897,-67.620002746582
550.907,-45.3600006103516
550.917,-21.310001373291
550.927,-15.1200008392334
550.937,0.450000017881393
550.947,22.8900012969971
550.957,9.69000053405762
550.967,-4.20000028610229
550.977,21.4900016784668
550.987,10.9500007629395
550.997,-5.60000038146973
551.007,23.1000003814697
551.017,28.5200004577637
551.027,0.940000057220459
551.037,10.5000009536743
551.047,23.8000011444092
551.057,-10.6400003433228
551.067,-9.76000022888184
551.077,12.0700006484985
551.086,1.99000012874603
551.096,-7.35000038146973
551.106,18.1600017547607
551.116,9.83000087738037
551.126,-12.6300010681152
551.136,-7.59000015258789
551.146,-17.25
551.156,-41.6100006103516
551.166,-31.4600009918213
551.176,-14.3100004196167
551.186,-31.7400016784668
551.196,-20.4400005340576
551.206,4.37000036239624
551.216,2.80000019073486
551.226,18.3000011444092
551.236,29.4700012207031
551.246,16.9700012207031
551.256,1.29000008106232
551.266,-6.37000036239624
551.276,-8.68000030517578
551.284,-9.80000019073486
551.294,-0.940000057220459
551.304,-4.76000022888184
551.314,-15.0500011444092
551.324,10.9200000762939
551.334,32.9000015258789
551.344,32.7900009155273
551.354,34.0200004577637
551.364,36.9600028991699
551.374,17.6000003814697
551.384,8.71000003814697
551.394,9.90000057220459
551.404,-12.0000009536743
551.414,-24.2500019073486
551.424,-12.5600004196167
551.434,-25.7600021362305
551.444,-37.3800010681152
551.454,-21.7000007629395
551.464,-5.95000028610229
551.474,0.840000033378601
551.478,-39.4400024414062
551.488,-62.930004119873
551.498,-60.3000030517578
551.508,-52.0800018310547
551.518,-60.2700042724609
551.528,-33.3500022888184
551.538,0.350000023841858
551.548,15.6800003051758
551.558,36.3600006103516
551.568,36.7100028991699
551.578,19.1400012969971
551.588,6.16000032424927
551.598,2.94000005722046
551.608,-4.90000009536743
551.618,-4.26999998092651
551.628,15.6100006103516
551.637,16.9700012207031
551.647,17.25
551.657,22.5400009155273
551.667,2.31000018119812
551.677,-18.480001449585
551.687,-24.6000003814697
551.697,-52.6000022888184
551.707,-65.3400039672852
551.717,-45.7400016784668
551.727,-34.3300018310547
551.737,-6.72000026702881
551.747,38.6000022888184
551.757,44.5900039672852
551.767,67.2700042724609
551.777,88.4100036621094
551.787,58.2700042724609
551.797,44.310001373291
551.807,23.1700019836426
551.817,-12.8100004196167
551.827,-23.1700019836426
551.836,-10.9900007247925
551.846,-8.32999992370605
551.856,17.5
551.866,50.0100021362305
551.876,52.9900016784668
551.886,66.7800064086914
551.896,83.0200042724609
551.906,74.9000015258789
551.916,84.2400054931641
551.926,89.8800048828125
551.936,67.7900009155273
551.946,61.8800010681152
551.956,52.6000022888184
551.966,22.5000019073486
551.976,-1.26000010967255
551.986,-28.3500022888184
551.996,-71.6100006103516
552.006,-105.17000579834
552.016,-140.420013427734
552.026,-168.940002441406
552.034,-171.290008544922
552.044,-148.5
552.054,-88.0200042724609
552.064,-17.8500003814697
552.074,23.5200004577637
552.084,69.370002746582
552.094,112.070007324219
552.104,120.190002441406
552.114,83.3000030517578
552.124,33.3900032043457
552.134,-6.30000019073486
552.144,-64.4300003051758
552.154,-113.120002746582
552.164,-126.210006713867
552.174,-139.889999389648
552.184,-128.170013427734
552.194,-94.2200012207031
552.204,-90.1600036621094
552.214,-77.4200057983398
552.224,-62.680004119873
552.228,-29.0100021362305
552.238,-24.3600006103516
552.248,-29.9900016784668
552.258,-34.8200035095215
552.268,-14.5600004196167
552.278,-4.69000005722046
552.288,4.37000036239624
552.298,9.27000045776367
552.308,-1.36000001430511
552.318,-7.77000045776367
552.328,6.16000032424927
552.338,21.0000019073486
552.348,20.5400009155273
552.358,32.3000030517578
552.368,58.2000045776367
552.378,46.2300033569336
552.387,23.4100017547607
552.397,-3.29000020027161
552.407,-43.8200035095215
552.417,-79.5900039672852
552.427,-85.7100067138672
552.437,-96.4200057983398
552.447,-104.720001220703
552.457,-87.2500076293945
552.467,-71.3300018310547
552.477,-62.5800018310547
552.487,-43.2600021362305
552.497,-23.2400016784668
552.507,-29.3600006103516
552.517,-32.3400001525879
552.527,-28.2800006866455
552.537,-40.1400032043457
552.547,-34.5800018310547
552.557,-20.0900001525879
552.567,-17.8800010681152
552.577,-1.78000009059906
552.585,-4.48000001907349
552.595,-18.6200008392334
552.605,-18.4400005340576
552.615,1.08000004291534
552.625,8.71000003814697
552.635,-6.33000040054321
552.645,1.92000007629395
552.655,11.5500001907349
552.665,24.9900016784668
552.675,29.7500019073486
552.685,26.2500019073486
552.695,26.980001449585
552.705,31.1800022125244
552.715,38.3900032043457
552.725,25.3400020599365
552.735,-7.07000017166138
552.745,-30.1700019836426
552.755,-20.0900001525879
552.765,-15.8200006484985
552.775,-39.5500030517578
552.784,-51.3800010681152
552.794,-55.3000030517578
552.804,-55.4000015258789
552.814,-50.430004119873
552.824,-34.0200004577637
552.834,-13.2300004959106
552.844,0.630000054836273
552.854,26.4900016784668
552.864,35.9400024414062
552.874,52.3900032043457
552.884,60.6500015258789
552.894,72.4800033569336
552.904,82.7700042724609
552.914,68.9800033569336
552.924,47.9100036621094
552.934,18.2000007629395
552.944,-17.0100002288818
552.954,-50.7800025939941
552.964,-72.4100036621094
552.974,-72.8300018310547
552.978,-13.3700008392334
552.988,-16.480001449585
552.998,-25.3000011444092
553.008,-44.6600036621094
553.018,-67.0600051879883
553.028,-79.4800033569336
553.038,-71.6100006103516
553.048,-67.5800018310547
553.058,-60.8300018310547
553.068,-32.5800018310547
553.078,8.28999996185303
553.088,34.4000015258789
553.098,57.5000038146973
553.108,70.7300033569336
553.118,80.9900054931641
553.128,68.390007019043
553.137,50.7800025939941
553.147,43.5700035095215
553.157,21.1000003814697
553.167,-6.47000026702881
553.177,-16.1000003814697
553.187,-15.7500009536743
553.197,3.15000009536743
553.207,24.3600006103516
553.217,35.310001373291
553.227,79.4800033569336
553.237,96.4200057983398
553.247,121.100006103516
553.257,136.150009155273
553.267,151.020004272461
553.277,130.440002441406
553.287,101.950004577637
553.297,65.870002746582
553.307,51.2700042724609
553.317,39.8600006103516
553.327,23.1700019836426
553.335,8.5
553.345,24.810001373291
553.355,50.5000038146973
553.365,45.9200019836426
553.375,30.310001373291
553.385,-7.03000020980835
553.395,-83.5400009155273
553.405,-172.550003051758
553.415,-202.820007324219
553.425,-202.650009155273
553.435,-194.770004272461
553.445,-198.550003051758
553.455,-168.870010375977
553.465,-142.660003662109
553.475,-118.330001831055
553.485,-95.9000015258789
553.495,-63.2400016784668
553.505,-28.2100009918213
553.515,34.1599998474121
553.525,89.0400009155273
553.534,158.130004882812
553.544,213.780014038086
553.554,229.84001159668
553.564,199.600006103516
553.574,189.84001159668
553.584,166.250015258789
553.594,109.130004882812
553.604,48.7200012207031
553.614,-1.15000009536743
553.624,-50.7800025939941
553.634,-93.4500045776367
553.644,-123.020004272461
553.654,-151.480010986328
553.664,-172.550003051758
553.674,-199.780014038086
553.684,-217.730010986328
553.694,-199.810012817383
553.704,-182.240005493164
553.714,-164.600006103516
553.724,-151.020004272461
553.728,71.1900024414062
553.738,150.530014038086
553.748,184.940002441406
553.758,173.280014038086
553.768,121.380004882812
553.778,50.1500015258789
553.788,-11.4100008010864
553.798,-49.7000007629395
553.808,-133.420013427734
553.818,-197.190002441406
553.828,-216.860015869141
553.838,-202.720016479492
553.848,-199.110015869141
553.858,-202.960006713867
553.868,-199.710006713867
553.878,-158.970001220703
553.887,-67.6500015258789
553.897,58.1700019836426
553.907,147.380004882812
553.917,166.980010986328
553.927,175.140014648438
553.937,194.280014038086
553.947,207.900009155273
553.957,189.310012817383
553.967,98.870002746582
553.977,0.350000023841858
553.987,-56.6600036621094
553.997,-79.4800033569336
554.007,-92.3600006103516
554.017,-133.940002441406
554.027,-164.110000610352
554.037,-204.68000793457
554.047,-201.670013427734
554.057,-156.900009155273
554.067,-86.5200042724609
554.077,-56.3800010681152
554.085,-47.0700035095215
554.095,-46.9700012207031
554.105,-31.7400016784668
554.115,-28.2800006866455
554.125,-58.4500045776367
554.135,-77.2800064086914
554.145,-118.580001831055
554.155,-171.110000610352
554.165,-202.230010986328
554.175,-195.470016479492
554.185,-208.070007324219
554.195,-208.250015258789
554.205,-179.160003662109
554.215,-113.710006713867
554.225,-30.9400005340576
554.235,68.6700057983398
554.245,164.950012207031
554.255,268.800018310547
554.265,354.550018310547
554.275,371.280029296875
554.284,335.610015869141
554.294,281.920013427734
554.304,198.270004272461
554.314,98.4500045776367
554.324,20.8200016021729
554.334,-44.7600021362305
554.344,-95.8300018310547
554.354,-95.9300079345703
554.364,-71.2900009155273
554.374,-58.3400039672852
554.384,-33.5300025939941
554.394,5.1100001335144
554.404,21.7000007629395
554.414,25.4400005340576
554.424,9.59000015258789
554.434,-2.76000022888184
554.444,-18.230001449585
554.454,-41.9600028991699
554.464,-72.6600036621094
554.474,-78.8500061035156
554.478,44.310001373291
554.488,33.4600028991699
554.498,27.230001449585
554.508,-2.31000018119812
554.518,-45.7800025939941
554.528,-93.1000061035156
554.538,-107.590003967285
554.548,-117.110008239746
554.558,-131.880004882812
554.568,-104.610008239746
554.578,-53.3000030517578
554.588,-20.3300018310547
554.598,13.7200002670288
554.608,82.7400054931641
554.618,125.120002746582
554.628,119.310005187988
554.637,122.67000579834
554.647,114.17000579834
554.657,79.870002746582
554.667,39.9300003051758
554.677,20.7200012207031
554.687,5.39000034332275
554.697,-14.3100004196167
554.707,-32.060001373291
554.717,-21.730001449585
554.727,-27.4700012207031
554.737,-35.8000030517578
554.747,-21.1400012969971
554.757,-4.90000009536743
554.767,-4.55000019073486
554.777,-7.94000053405762
554.787,8.36000061035156
554.797,27.0500011444092
554.807,30.6200008392334
554.817,34.8200035095215
554.827,38.0100021362305
554.835,26.3900012969971
554.845,21.7700004577637
554.855,28.9400005340576
554.865,46.2000007629395
554.875,81.0200042724609
554.885,-5
554.895,-141.960006713867
554.905,-147.310012817383
554.915,-55.7900009155273
554.925,-13.0200004577637
554.935,10.0800008773804
554.945,25.480001449585
554.955,-20.7900009155273
554.965,-85.6100006103516
554.975,-34.7900009155273
554.985,7.03000020980835
554.995,15.5700006484985
555.005,63.0300025939941
555.015,55.680004119873
555.025,-57.7500038146973
555.034,-14.5600004196167
555.044,12.8800010681152
555.054,-25.3700008392334
555.064,-10.0400009155273
555.074,24.2200012207031
555.084,-11.5800008773804
555.094,-11.6500005722046
555.104,16.2400016784668
555.114,-4.62000036239624
555.124,-80.640007019043
555.134,-101.290008544922
555.144,-80.9900054931641
555.154,-131.460006713867
555.164,-116.230003356934
555.174,-76.3000030517578
555.184,-159.460006713867
555.194,-146.820007324219
555.204,-37.7300033569336
555.214,16.6900005340576
555.224,65.5500030517578
555.228,76.2300033569336
555.238,56.9100036621094
555.248,15.0500011444092
555.258,-12.9800004959106
555.268,-72.9700012207031
555.278,-95.7200012207031
555.288,-35.3800010681152
555.298,-11.9700002670288
555.308,-71.5
555.318,-56.5200042724609
555.328,76.3000030517578
555.338,160.860000610352
555.348,121.76000213623
555.358,137.480010986328
555.368,175.490005493164
555.378,214.620010375977
555.387,271.950012207031
555.397,315.380004882812
555.407,308.660003662109
555.417,300.680023193359
555.427,285.180023193359
555.437,259.450012207031
555.447,227.920013427734
555.457,200.860015869141
555.467,162.400009155273
555.477,88.1300048828125
555.487,-2.24000000953674
555.497,-66.5300064086914
555.507,-143.150009155273
555.517,-192.43000793457
555.527,-204.190002441406
555.537,-231.280014038086
555.547,-235.510009765625
555.557,-199.220016479492
555.567,-137.580001831055
555.577,-104.440002441406
555.585,-50.0100021362305
555.595,0.940000057220459
555.605,25.4400005340576
555.615,40.7700004577637
555.625,57.0800018310547
555.635,56.3500022888184
555.645,59.6000022888184
555.655,64.9200057983398
555.665,38.1800003051758
555.675,32.4099998474121
555.685,44.0300025939941
555.695,34.4000015258789
555.705,15.5000009536743
555.715,15.0800008773804
555.725,11.1300001144409
555.735,5.28000020980835
555.745,13.0900001525879
555.755,20.9600009918213
555.765,5.77000045776367
555.775,15.9600009918213
555.784,46.930004119873
555.794,38.4300003051758
555.804,26.980001449585
555.814,29.8900012969971
555.824,15.5400009155273
555.834,-2.76000022888184
555.844,-0.350000023841858
555.854,-11.7200002670288
555.864,-29.8900012969971
555.874,-23.3800010681152
555.884,-14.5200004577637
555.894,-19.3900012969971
555.904,-9.24000072479248
555.914,20.4400005340576
555.924,25.9000015258789
555.934,33.1400032043457
555.944,51.7300033569336
555.954,57.1500015258789
555.964,58.060001373291
555.974,62.5400047302246
555.978,9.6200008392334
555.988,2.41000008583069
555.998,-3.71000027656555
556.008,-10.8500003814697
556.018,-8.89000034332275
556.028,-1.75000011920929
556.038,-4.90000009536743
556.048,-10.8800001144409
556.058,-3.78000020980835
556.068,-4.37000036239624
556.078,-4.72000026702881
556.088,9.27000045776367
556.098,18.4100017547607
556.108,14.2800006866455
556.118,29.8200016021729
556.128,37.2000007629395
556.137,31.7400016784668
556.147,36.8500022888184
556.157,32.8300018310547
556.167,13.3000001907349
556.177,0.380000025033951
556.187,-8.92000007629395
556.197,-33.7700004577637
556.207,-36.9900016784668
556.217,-26.980001449585
556.227,-28.4500007629395
556.237,-23.6900005340576
556.247,-1.05000007152557
556.257,4.69000005722046
556.267,19.0700016021729
556.277,42.8000030517578
556.287,38.9900016784668
556.297,28.310001373291
556.307,38.3900032043457
556.317,35.4900016784668
556.327,13.2300004959106
556.335,10.0100002288818
556.345,-2.34000015258789
556.355,-17.9200000762939
556.365,-11.4400005340576
556.375,-6.75000047683716
556.385,-15.0500011444092
556.395,-0.380000025033951
556.405,5.74000024795532
556.415,-4.93000030517578
556.425,8.36000061035156
556.435,19.0700016021729
556.445,6.93000030517578
556.455,1.92000007629395
556.465,-2.83000016212463
556.475,-21.4500007629395
556.485,-12.1100006103516
556.495,8.99000072479248
556.505,0.380000025033951
556.515,17.8800010681152
556.525,25.2000007629395
556.534,-5.70000028610229
556.544,1.54000008106232
556.554,0.310000002384186
556.564,-22.9600009918213
556.574,-11.7200002670288
556.584,-13.5100002288818
556.594,-45.6400032043457
556.604,-30.2700023651123
556.614,-18.9300003051758
556.624,-32.060001373291
556.634,-15.3300008773804
556.644,-3.1100001335144
556.654,-2.13000011444092
556.664,13.9300003051758
556.674,13.0500001907349
556.684,4.69000005722046
556.694,10.5000009536743
556.704,3.57000017166138
556.714,-16.8299999237061
556.724,-14.4900007247925
556.728,-3.81000018119812
556.738,14.0700006484985
556.748,18.8600006103516
556.758,18.9000015258789
556.768,26.1800003051758
556.778,32.9300003051758
556.788,20.0200004577637
556.798,17.25
556.808,11.8300008773804
556.818,-3.85000014305115
556.828,-9.20000076293945
556.838,-16.4099998474121
556.848,-22.3600006103516
556.858,-12.3500003814697
556.868,-7.38000011444092
556.878,-3.04000020027161
556.886,-2.66000008583069
556.896,1.22000002861023
556.906,-0.630000054836273
556.916,-13.1900005340576
556.926,-12.7700004577637
556.936,-6.75000047683716
556.946,-1.6800000667572
556.956,12.4200010299683
556.966,15.2900009155273
556.976,4.76000022888184
556.986,-2.41000008583069
556.996,-0.420000016689301
557.006,-1.78000009059906
557.016,4.51000022888184
557.026,-5.67000007629395
557.036,-27.5400009155273
557.046,-28.980001449585
557.056,-32.0900001525879
557.066,-34.75
557.076,-16.1700000762939
557.085,-5.77000045776367
557.095,8.85000038146973
557.105,45.8500022888184
557.115,60.9000015258789
557.125,59.2900009155273
557.135,65.9000015258789
557.145,42.6600036621094
557.155,20.3000011444092
557.165,15.7500009536743
557.175,-20.3700008392334
557.185,-47.6300010681152
557.195,-47.560001373291
557.205,-42.4200019836426
557.215,-12.6300010681152
557.225,20.1900005340576
557.235,21.980001449585
557.245,47.2500038146973
557.255,68.5600051879883
557.265,47.0400009155273
557.275,39.4400024414062
557.284,36.0500030517578
557.294,1.22000002861023
557.304,-12.4600009918213
557.314,-14.7300004959106
557.324,-31.3900012969971
557.334,-19.7400016784668
557.344,-0.240000009536743
557.354,-15.1500005722046
557.364,-16.6200008392334
557.374,5.1100001335144
557.384,5.70000028610229
557.394,4.8600001335144
557.404,0.590000033378601
557.414,-11.5500001907349
557.424,-8.57000064849854
557.434,-13.1900005340576
557.444,-33.0699996948242
557.454,-29.4000015258789
557.464,-15.9900007247925
557.474,-28.5200004577637
557.477,-16.8000011444092
557.487,-6.12000036239624
557.497,3.1800000667572
557.507,32.3400001525879
557.517,62.3000030517578
557.527,68.9500045776367
557.537,79.1700057983398
557.547,97.890007019043
557.557,82.2800064086914
557.567,73.0100021362305
557.577,70.5200042724609
557.587,59.0800018310547
557.597,47.9800033569336
557.607,52.6000022888184
557.617,54.0700035095215
557.627,66.5699996948242
557.637,87.4300079345703
557.646,66.5300064086914
557.656,51.5900039672852
557.666,31.5300006866455
557.676,1.92000007629395
557.686,-45.3900032043457
557.696,-107.030006408691
557.706,-167.820007324219
557.716,-199.110015869141
557.726,-228.300018310547
557.736,-239.780014038086
557.746,-220.600006103516
557.756,-170.660003662109
557.766,-126.450004577637
557.776,-102.440002441406
557.786,-72.8300018310547
557.796,-57.2200012207031
557.806,-59.0400009155273
557.816,-65.9000015258789
557.826,-57.5700035095215
557.835,-67.6500015258789
557.845,-63.9800033569336
557.855,-31.1100006103516
557.865,3.1800000667572
557.875,21.8400001525879
557.885,44.870002746582
557.895,78.9900054931641
557.905,85.890007019043
557.915,79.6900024414062
557.925,75.2100067138672
557.935,45.2900009155273
557.945,8.57000064849854
557.955,-11.1600008010864
557.965,-20.0500011444092
557.975,-24.5000019073486
557.985,-21.1000003814697
557.995,11.7200002670288
558.005,33.1400032043457
558.015,30.3800010681152
558.025,19.7700004577637
558.034,-1.47000002861023
558.044,-30.730001449585
558.054,-75.3500061035156
558.064,-99.2200012207031
558.074,-129.920013427734
558.084,-178.570007324219
558.094,-172.020004272461
558.104,-122.43000793457
558.114,-75.3500061035156
558.124,-28.730001449585
558.134,29.8900012969971
558.144,93.3800048828125
558.154,129.320007324219
558.164,137.410003662109
558.174,106.750007629395
558.184,64.2900009155273
558.194,2.80000019073486
558.204,-42.0700035095215
558.214,-67.7200012207031
558.224,-73.4300003051758
558.228,-5.74000024795532
558.238,37.9700012207031
558.248,101.320007324219
558.258,141.050003051758
558.268,151.790008544922
558.278,152.070007324219
558.288,132.260009765625
558.298,88.7900009155273
558.308,29.8500022888184
558.318,-51.0300025939941
558.328,-109.860008239746
558.338,-152.420013427734
558.348,-179.160003662109
558.358,-205.380004882812
558.368,-197.290008544922
558.378,-176.990005493164
558.388,-154.84001159668
558.396,-125.790008544922
558.406,-135.900009155273
558.416,-151.93000793457
558.426,-181.09001159668
558.436,-189.910003662109
558.446,-190.360015869141
558.456,-200.370010375977
558.466,-209.750015258789
558.476,-208.810012817383
558.486,-190.330001831055
558.496,-183.360015869141
558.506,-165.160003662109
558.516,-126.660003662109
558.526,-90.8200073242188
558.536,-60.4400024414062
558.546,-23.060001373291
558.556,2.38000011444092
558.566,16.060001373291
558.576,10.7800006866455
558.585,-20.2600002288818
558.595,-30.060001373291
558.605,-20.0900001525879
558.615,-33.810001373291
558.625,-63.870002746582
558.635,-71.5400009155273
558.645,-60.2000045776367
558.655,-41.9600028991699
558.665,-37.5500030517578
558.675,-53.5800018310547
558.685,-42.3800010681152
558.695,-24.6000003814697
558.705,-21.7700004577637
558.715,-25.6500015258789
558.725,-23.9000015258789
558.735,8.75
558.745,50.7100028991699
558.755,73.390007019043
558.765,97.3300018310547
558.775,140.520004272461
558.784,213.990005493164
558.794,260.890014648438
558.804,271.279998779297
558.814,256.130004882812
558.824,234.010009765625
558.834,220.740005493164
558.844,203.980010986328
558.854,187.070007324219
558.864,159.210006713867
558.874,116.650009155273
558.884,46.6500015258789
558.894,-19.9500007629395
558.904,-75.390007019043
558.914,-115.710006713867
558.924,-151.34001159668
558.934,-178.570007324219
558.944,-185.670013427734
558.954,-168.910003662109
558.964,-121.130004882812
558.974,-78.5700073242188
558.977,16.6599998474121
558.987,-3.25000023841858
558.997,-21.6300010681152
559.007,-23.8000011444092
559.017,-22.3600006103516
559.027,-17.1800003051758
559.037,-19.9500007629395
559.047,-27.8200016021729
559.057,-23.1000003814697
559.067,7.73000049591064
559.077,35.310001373291
559.087,14.1000003814697
559.097,-17.4600009918213
559.107,-42.7700004577637
559.117,-60.2000045776367
559.127,-66.9900054931641
559.137,-67.7200012207031
559.146,-59.7400016784668
559.156,-53.370002746582
559.166,-22.9900016784668
559.176,4.37000036239624
559.186,20.8600006103516
559.196,19.2100009918213
559.206,17.3200016021729
559.216,28.2100009918213
559.226,42.5900001525879
559.236,87.0800018310547
559.246,117.530006408691
559.256,103.350006103516
559.266,99.4000015258789
559.276,131.18000793457
559.286,161.070007324219
559.296,156.830001831055
559.306,131.600006103516
559.316,86.0600051879883
559.326,21.9100017547607
559.335,-50.1900024414062
559.345,-89.4900054931641
559.355,-129.600006103516
559.365,-179.480010986328
559.375,-215.280014038086
559.385,-204.750015258789
559.395,-174.300003051758
559.405,-129.740005493164
559.415,-96.3200073242188
559.425,-89.390007019043
559.435,-86.7300033569336
559.445,-68.2800064086914
559.455,-45.1100006103516
559.465,-31.9500007629395
559.475,-43.1500015258789
559.485,-72.7300033569336
559.495,-97.4400024414062
559.505,-92.7800064086914
559.515,-70.140007019043
559.525,-42.7300033569336
559.534,-25.2700004577637
559.544,-10.710000038147
559.554,22.9900016784668
559.564,67.4100036621094
559.574,78.2600021362305
559.584,74.5500030517578
559.594,48.6500015258789
559.604,22.6800003051758
559.614,7.49000024795532
559.624,-12.1100006103516
559.634,-55.0200042724609
559.644,-94.390007019043
559.654,-133.980010986328
559.664,-139.470001220703
559.674,-116.93000793457
559.684,-74.5100021362305
559.694,-59.0800018310547
559.704,-51.3400039672852
559.714,-6.23000049591064
559.724,54.1100044250488
559.728,142.030014038086
559.738,136.639999389648
559.748,103.770004272461
559.758,39.6900024414062
559.768,-10.8800001144409
559.778,-39.7200012207031
559.788,-50.6400032043457
559.798,-58.870002746582
559.808,-79.6600036621094
559.818,-91.2800064086914
559.828,-93.7300033569336
559.838,-83.4000015258789
559.848,-91.1000061035156
559.858,-117.740005493164
559.868,-127.360008239746
559.878,-128.730010986328
559.886,-107.590003967285
559.896,-63.9400024414062
559.906,-19.4900016784668
559.916,11.1600008010864
559.926,46.3400039672852
559.936,87.390007019043
559.946,107.690002441406
559.956,110.490005493164
559.966,80.2200012207031
559.976,23.2000007629395
559.986,-19.8400001525879
559.996,-55.1900024414062
560.006,-69.6800003051758
560.016,-67.0600051879883
560.026,-53.9000015258789
560.036,-21.8000011444092
560.046,21.4500007629395
560.056,56.8400039672852
560.066,68.6000061035156
560.076,65.4100036621094
560.085,54.810001373291
560.095,28.6600017547607
560.105,0.590000033378601
560.115,-22.5400009155273
560.125,-26.9100017547607
560.135,-27.9600009918213
560.145,-36.75
560.155,-36.4000015258789
560.165,-52.0400009155273
560.175,-72.6600036621094
560.185,-89.1800079345703
560.195,-118.93000793457
560.205,-142.380004882812
560.215,-155.360000610352
560.225,-150.950012207031
560.235,-141.43000793457
560.245,-126.380004882812
560.255,-105.940002441406
560.265,-68.8400039672852
560.275,-33.2100028991699
560.284,-11.5500001907349
560.294,7.73000049591064
560.304,26.3200016021729
560.314,44.6600036621094
560.324,42.310001373291
560.334,47.3200035095215
560.344,70.2100067138672
560.354,97.3000030517578
560.364,112.100006103516
560.374,117.18000793457
560.384,119.450004577637
560.394,95.5800018310547
560.404,66.7100067138672
560.414,33.7700004577637
560.424,-6.23000049591064
560.434,-24.5700016021729
560.444,-41.4700012207031
560.454,-49.3800010681152
560.464,-52.5000038146973
560.474,-58.4100036621094
560.477,-58.1700019836426
560.487,-65.1700057983398
560.497,-57.1500015258789
560.507,-53.620002746582
560.517,-58.9000015258789
560.527,-55.9600028991699
560.537,-63.310001373291
560.547,-64.5699996948242
560.557,-71.8199996948242
560.567,-76.890007019043
560.577,-85.0800018310547
560.587,-87.2200012207031
560.597,-86.2400054931641
560.607,-71.9200057983398
560.617,-48.3000030517578
560.627,-28.1400012969971
560.636,0.730000019073486
560.646,21.2100009918213
560.656,45.4600028991699
560.666,63.9100036621094
560.676,66.3899993896484
560.686,55.7900009155273
560.696,61.8400039672852
560.706,63.8400039672852
560.716,52.6700019836426
560.726,34.0900001525879
560.736,24.8800010681152
560.746,17.1100006103516
560.756,-3.92000007629395
560.766,-35.6300010681152
560.776,-71.1500015258789
560.786,-92.4700012207031
560.796,-97.6100082397461
560.806,-85.0800018310547
560.816,-79.620002746582
560.826,-50.4000015258789
560.835,-8.89000034332275
560.845,39.0900001525879
560.855,64.1900024414062
560.865,78.2200012207031
560.875,86.3800048828125
560.885,69.9600067138672
560.895,34.1599998474121
560.905,-2.59000015258789
560.915,-24.9500007629395
560.925,-50.1900024414062
560.935,-71.9600067138672
560.945,-79.1700057983398
560.955,-52.5700035095215
560.965,-33.1400032043457
560.975,-16.1700000762939
560.985,-12.2100009918213
560.995,-11.9700002670288
561.005,-12.8400001525879
561.015,-29.1200008392334
561.025,-60.2000045776367
561.029,-26.810001373291
561.039,-4.72000026702881
561.049,30.730001449585
561.059,62.5800018310547
561.069,72.3100051879883
561.079,72.3800048828125
561.089,75.4600067138672
561.099,53.6900024414062
561.109,20.3000011444092
561.119,-4.90000009536743
561.129,-21.560001373291
561.139,-33.25
561.149,-46.4800033569336
561.159,-61.9800033569336
561.169,-48.9600028991699
561.179,-27.4400005340576
561.189,-24.1800003051758
561.197,-7.28000020980835
561.207,17.0400009155273
561.217,24.4300003051758
561.227,22.7100009918213
561.237,30.6900005340576
561.247,32.1300010681152
561.257,21.4500007629395
561.267,8.05000019073486
561.277,4.13000011444092
561.287,-7.14000034332275
561.297,-34.4400024414062
561.307,-49.0300025939941
561.317,-53.7900009155273
561.327,-61.7000045776367
561.337,-76.120002746582
561.347,-59.7800025939941
561.357,-27.7500019073486
561.367,5.07000017166138
561.377,22.9900016784668
561.386,37.2700004577637
561.396,47.4900016784668
561.406,49.5900039672852
561.416,25.7900009155273
561.426,11.3400001525879
561.436,2.59000015258789
561.446,-25.480001449585
561.456,-42.0300025939941
561.466,-30.1700019836426
561.476,-30.310001373291
561.486,-24.4600009918213
561.496,-21.4500007629395
561.506,-7.28000020980835
561.516,8.26000022888184
561.526,9.94000053405762
561.536,17.0100002288818
561.546,28.8000011444092
561.556,33.560001373291
561.566,23.5500011444092
561.576,22.1900005340576
561.585,31.7400016784668
561.595,27.2600021362305
561.605,13.6500005722046
561.615,11.2000007629395
561.625,2.87000012397766
561.635,-9.34000015258789
561.645,-14.4900007247925
561.655,-10.9500007629395
561.665,-8.61000061035156
561.675,-1.99000012874603
561.685,5.28000020980835
561.695,17.8800010681152
561.705,9.03000068664551
561.715,0.240000009536743
561.725,0.590000033378601
561.735,-8.47000026702881
561.745,-12.9800004959106
561.755,-14.4500007629395
561.765,-11.6500005722046
561.775,-15.2200002670288
561.777,6.30000019073486
561.787,15.6100006103516
561.797,31.5000019073486
561.807,23.060001373291
561.817,11.2300004959106
561.827,16.480001449585
561.837,15.3300008773804
561.847,-6.05000019073486
561.857,-8.28999996185303
561.867,7.63000059127808
561.877,3.04000020027161
561.887,-7.66000032424927
561.897,5.88000011444092
561.907,9.97000026702881
561.917,-12.1400003433228
561.927,-8.53999996185303
561.937,9.17000007629395
561.947,14.4200010299683
561.957,19.4600009918213
561.967,16.5200004577637
561.977,21.730001449585
561.987,31.5000019073486
561.997,44.7600021362305
562.007,36.6100006103516
562.017,11.0900001525879
562.027,13.1200008392334
562.037,19.8800010681152
562.047,5.77000045776367
562.057,6.96000051498413
562.067,25.0200004577637
562.077,16.9000015258789
562.087,10.6000003814697
562.097,21.310001373291
562.107,11.8600006103516
562.117,-8.43000030517578
562.127,-10.9200000762939
562.136,-12.8800010681152
562.146,-36.4300003051758
562.156,-41.7200012207031
562.166,-18.230001449585
562.176,-8.75
562.186,-6.19000005722046
562.196,7.45000028610229
562.206,25.9000015258789
562.216,27.6500015258789
562.226,27.0900020599365
562.236,36.7800025939941
562.246,29.7800006866455
562.256,27.230001449585
562.266,45.7400016784668
562.276,35.870002746582
562.286,9.76000022888184
562.296,8.40000057220459
562.306,20.0900001525879
562.316,26.0700016021729
562.326,33.3500022888184
562.335,30.4500007629395
562.345,13.0500001907349
562.355,25.6900005340576
562.365,36.6100006103516
562.375,23.2400016784668
562.385,7.1700005531311
562.395,18.9700012207031
562.405,28.1700019836426
562.415,-1.05000007152557
562.425,-14.4200010299683
562.435,19.1400012969971
562.445,32.7200012207031
562.455,32.2300033569336
562.465,62.4400024414062
562.475,79.5900039672852
562.485,91.1000061035156
562.495,111.860008239746
562.505,90.890007019043
562.515,34.4700012207031
562.525,-13.1600008010864
562.528,-33.1800003051758
562.538,-38.5700035095215
562.548,-25.9300003051758
562.558,-6.26000022888184
562.568,-13.3000001907349
562.578,-22.6800003051758
562.588,-4.44000005722046
562.598,12.4900007247925
562.608,14.6300010681152
562.618,31.5000019073486
562.628,50.120002746582
562.638,51.1000022888184
562.648,64.1900024414062
562.658,73.1800003051758
562.668,51.8300018310547
562.678,44.2400016784668
562.688,49.7300033569336
562.697,52.1500015258789
562.707,47.3500022888184
562.717,15.8200006484985
562.727,-10.3900003433228
562.737,-30.1700019836426
562.747,-37.1000022888184
562.757,-42.7700004577637
562.767,-34.2300033569336
562.777,-2.90000009536743
562.787,15.6100006103516
562.797,39.4100036621094
562.807,74.6900024414062
562.817,89.1800079345703
562.827,89.3500061035156
562.837,103.700004577637
562.847,101.320007324219
562.857,107.590003967285
562.867,130.510009765625
562.877,124.530006408691
562.886,114.030006408691
562.896,92.640007019043
562.906,64.2900009155273
562.916,28.0700016021729
562.926,8.82000064849854
562.936,1.19000005722046
562.946,-5.04000043869019
562.956,-3.15000009536743
562.966,-0.100000001490116
562.976,7.24000024795532
562.986,1.99000012874603
562.996,5.1100001335144
563.006,-11.6900005340576
563.016,-37.310001373291
563.026,-63.9100036621094
563.036,-99.5400009155273
563.046,-122.710006713867
563.056,-127.080009460449
563.066,-140.450012207031
563.076,-111.750007629395
563.085,-78.5
563.095,-41.9600028991699
563.105,-0.420000016689301
563.115,24.8500003814697
563.125,37.6600036621094
563.135,36.75
563.145,21.6600017547607
563.155,3.4300000667572
563.165,-7.5600004196167
563.175,-26.0400009155273
563.185,-39.9000015258789
563.195,-30.730001449585
563.205,-29.4000015258789
563.215,-10.1800003051758
563.225,35.7000007629395
563.235,73.1800003051758
563.245,99.4300079345703
563.255,126.070007324219
563.265,133.910003662109
563.275,142.030014038086
563.278,131.420013427734
563.288,126.730003356934
563.298,96.7400054931641
563.308,107.270004272461
563.318,95.8300018310547
563.328,56.6300010681152
563.338,64.9900054931641
563.348,56.1400032043457
563.358,2.06000018119812
563.368,-36.6400032043457
563.378,-66.5
563.388,-110.250007629395
563.398,-133.029998779297
563.408,-149.520004272461
563.418,-177.800003051758
563.428,-169.710006713867
563.438,-121.240005493164
563.447,-81.6900024414062
563.457,-54.6000022888184
563.467,-11.0600004196167
563.477,24.1800003051758
563.487,60.060001373291
563.497,87.8500061035156
563.507,65.6900024414062
563.517,58.9400024414062
563.527,73.8800048828125
563.537,60.0900039672852
563.547,48.7200012207031
563.557,45.9200019836426
563.567,28.1700019836426
563.577,26.2800006866455
563.587,43.0100021362305
563.597,39.3000030517578
563.607,19.3200016021729
563.617,16.5200004577637
563.627,-2.76000022888184
563.636,-34.1900024414062
563.646,-60.0200042724609
563.656,-84.870002746582
563.666,-94.3200073242188
563.676,-79.8000030517578
563.686,-56.2400016784668
563.696,-44.1000022888184
563.706,-12.8100004196167
563.716,35.4900016784668
563.726,91.870002746582
563.736,165.480010986328
563.746,215.700012207031
563.756,239.920013427734
563.766,262.570007324219
563.776,280.630004882812
563.786,274.990020751953
563.796,238.450012207031
563.806,204.400009155273
563.816,156.450012207031
563.826,121.830009460449
563.835,71.1500015258789
563.845,49.8400039672852
563.855,1.6800000667572
563.865,-35.7700004577637
563.875,-41.7900009155273
563.885,-47.0400009155273
563.895,-83.6500015258789
563.905,-85.9600067138672
563.915,-79.1000061035156
563.925,-76.6500015258789
563.935,-77.3100051879883
563.945,-54.8400039672852
563.955,-41.7500038146973
563.965,-25.5500011444092
563.975,-3.85000014305115
563.985,27.7200012207031
563.995,48.6500015258789
564.005,74.4100036621094
564.015,107.340003967285
564.025,117.530006408691
564.029,76.2600021362305
564.039,28.9400005340576
564.049,-2.13000011444092
564.059,-24.8500003814697
564.069,-46.2300033569336
564.079,-83.2600021362305
564.089,-104.160003662109
564.099,-118.820007324219
564.109,-128.620010375977
564.119,-108.390007019043
564.129,-70.2100067138672
564.139,-54.6000022888184
564.149,-35.8400001525879
564.159,0.870000064373016
564.169,42.7000007629395
564.179,69.4400024414062
564.189,93.3100051879883
564.197,115.780006408691
564.207,124.530006408691
564.217,135.34001159668
564.227,123.790008544922
564.237,100.200004577637
564.247,110.560005187988
564.257,166.600006103516
564.267,214.580017089844
564.277,263.760009765625
564.287,288.080017089844
564.297,280.240020751953
564.307,255.360015869141
564.317,211.400009155273
564.327,135.100006103516
564.337,29.4300022125244
564.347,-51.8300018310547
564.357,-116.860008239746
564.367,-137.900009155273
564.377,-116.340003967285
564.386,-92.2200012207031
564.396,-66.9200057983398
564.406,-39.8600006103516
564.416,-18.4100017547607
564.426,-0.100000001490116
564.436,-22.6100006103516
564.446,-63.1700019836426
564.456,-89.140007019043
564.466,-123.060005187988
564.476,-123.480003356934
564.486,-105.42000579834
564.496,-84.1000061035156
564.506,-26.2800006866455
564.516,13.5400009155273
564.526,29.9200019836426
564.536,38.810001373291
564.546,27.5100021362305
564.556,-3.99000024795532
564.566,-52.3600006103516
564.576,-66.9500045776367
564.584,-64.2600021362305
564.594,-55.8900032043457
564.604,-37.9400024414062
564.614,-12.1800003051758
564.624,17.4600009918213
564.634,34.6800003051758
564.644,64.4000015258789
564.654,80.5000076293945
564.664,69.7900009155273
564.674,96.4900054931641
564.684,132.300003051758
564.694,139.050003051758
564.704,147.350006103516
564.714,181.370010375977
564.724,194.140014648438
564.734,211.710006713867
564.744,252.630004882812
564.754,255.990005493164
564.764,223.400009155273
564.774,167.68000793457
564.778,-51.4800033569336
564.788,-64.1500015258789
564.798,-45.1800003051758
564.808,-27.5800018310547
564.818,-8.01000022888184
564.828,8.07999992370605
564.838,29.5000019073486
564.848,31.2500019073486
564.858,17.4300003051758
564.868,4.79000043869019
564.878,2.94000005722046
564.888,-9.90000057220459
564.898,-5.07000017166138
564.908,12.7400007247925
564.918,-8.22000026702881
564.928,-20.7500019073486
564.937,-23.3400020599365
564.947,-40.2800025939941
564.957,-74.2700042724609
564.967,-134.540008544922
564.977,-188.820007324219
564.987,-220.600006103516
564.997,-204.850006103516
565.007,-152
565.017,-103.740005493164
565.027,-58.1000022888184
565.037,-14.6300010681152
565.047,24.1500015258789
565.057,52.8500022888184
565.067,83.1900024414062
565.077,122.950004577637
565.087,145.700012207031
565.097,150.18000793457
565.107,149.690002441406
565.117,121.130004882812
565.127,65.3100051879883
565.136,-8.26000022888184
565.146,-80.25
565.156,-94.3600082397461
565.166,-80.7400054931641
565.176,-59.9500045776367
565.186,-21.0700016021729
565.196,24.3200016021729
565.206,76.4400024414062
565.216,136.670013427734
565.226,173.810012817383
565.236,204.400009155273
565.246,230.68000793457
565.256,226.170013427734
565.266,206.360015869141
565.276,196.170013427734
565.286,181.93000793457
565.296,148.5
565.306,121.410003662109
565.316,88.5100021362305
565.326,41.0200004577637
565.334,23.4500007629395
565.344,8.22000026702881
565.354,-15.5000009536743
565.364,-33.7400016784668
565.374,-48.8200035095215
565.384,-41.120002746582
565.394,-32.5800018310547
565.404,-33.8800010681152
565.414,-37.8300018310547
565.424,-28.560001373291
565.434,-27.3700008392334
565.444,-30.4100017547607
565.454,-30.2000007629395
565.464,-46.930004119873
565.474,-60.0200042724609
565.484,-50.6100006103516
565.494,-59.5300025939941
565.504,-79.1000061035156
565.514,-79.6600036621094
565.524,-68.9100036621094
565.528,60.7200012207031
565.538,85.7800064086914
565.548,97.5800018310547
565.558,103.110008239746
565.568,112.870002746582
565.578,103.770004272461
565.588,79.4500045776367
565.598,51.9000015258789
565.608,14.4500007629395
565.618,-39.0900001525879
565.628,-78.9200057983398
565.638,-102.620002746582
565.648,-129.320007324219
565.658,-128.730010986328
565.668,-96.3500061035156
565.678,-57.1500015258789
565.687,-7.1700005531311
565.697,55.6100044250488
565.707,120.400009155273
565.717,156.870010375977
565.727,188.650009155273
565.737,199.640014648438
565.747,223.580017089844
565.757,174.020004272461
565.767,133.490005493164
565.777,84.870002746582
565.787,1.57000005245209
565.797,-38.9900016784668
565.807,-49.4200019836426
565.817,-63.9400024414062
565.827,-87.2900009155273
565.837,-16.3800010681152
565.847,0.21000000834465
565.857,20.9300003051758
565.867,40.4600028991699
565.877,81.6900024414062
565.886,79.3100051879883
565.896,43.4700012207031
565.906,-8.15000057220459
565.916,-35.1400032043457
565.926,-89.4200057983398
565.936,-33.5300025939941
565.946,-4.8600001335144
565.956,-5.25000047683716
565.966,28.7000007629395
565.976,71.2600021362305
565.986,32.2000007629395
565.996,74.3000030517578
566.006,74.4100036621094
566.016,-4.09000015258789
566.026,-36.75
566.036,20.3000011444092
566.046,13.8600006103516
566.056,-12.2500009536743
566.066,15.9900007247925
566.076,2.41000008583069
566.084,-7.87000036239624
566.094,-0.840000033378601
566.104,-23.6900005340576
566.114,-57.9200019836426
566.124,-54.1400032043457
566.134,4.79000043869019
566.144,50.1500015258789
566.154,56.7300033569336
566.164,85.890007019043
566.174,84.140007019043
566.184,107.690002441406
566.194,104.580001831055
566.204,101.710006713867
566.214,20.6800003051758
566.224,-11.8600006103516
566.234,-7.66000032424927
566.244,0.840000033378601
566.254,21.4200000762939
566.264,37.870002746582
566.274,51.5500030517578
566.278,-7.80000019073486
566.288,-23.6900005340576
566.298,-7.87000036239624
566.308,3.04000020027161
566.318,-37.6900024414062
566.328,-81.620002746582
566.338,-68.0699996948242
566.348,1.12000000476837
566.358,5.70000028610229
566.368,1.82000005245209
566.378,24.2900009155273
566.388,26.2100009918213
566.398,70.3500061035156
566.408,94.1800079345703
566.418,86.2000045776367
566.428,72.5200042724609
566.437,63.2800025939941
566.447,49.1400032043457
566.457,18.8600006103516
566.467,-25.230001449585
566.477,-104.820007324219
566.487,-108.080001831055
566.497,-37.4500007629395
566.507,-40.0700035095215
566.517,-38.25
566.527,-23.2000007629395
566.537,-17.6700000762939
566.547,-7.73000049591064
566.557,36.0100021362305
566.567,20.6100006103516
566.577,-49.7000007629395
566.587,-82.3500061035156
566.597,-105.560005187988
566.607,-92.1900024414062
566.617,-94.7400054931641
566.627,-101.220001220703
566.636,-4.51000022888184
566.646,72.870002746582
566.656,98.7000045776367
566.666,147.800003051758
566.676,168.520004272461
566.686,144.160003662109
566.696,146.260009765625
566.706,140.630004882812
566.716,74.2000045776367
566.726,16.2700004577637
566.736,-9.41000080108643
566.746,-9.69000053405762
566.756,-59.3900032043457
566.766,-89.2100067138672
566.776,-88.8300018310547
566.786,-69.5800018310547
566.796,-3.60000014305115
566.806,-12.4200010299683
566.816,-28.9400005340576
566.826,-0.940000057220459
566.834,28.6300010681152
566.844,53.6500015258789
566.854,78.0100021362305
566.864,59.7800025939941
566.874,35.4900016784668
566.884,30.1300010681152
566.894,23.8000011444092
566.904,13.3000001907349
566.914,6.72000026702881
566.924,-13.0200004577637
566.934,-26.980001449585
566.944,-32.7900009155273
566.954,-49.3800010681152
566.964,-55.5100021362305
566.974,-45.5700035095215
566.984,-42.4500007629395
566.994,-28.3500022888184
567.004,-8.19000053405762
567.014,6.93000030517578
567.024,24.5000019073486
567.028,42.4900016784668
567.038,35.1000022888184
567.048,35.2100028991699
567.058,28.6300010681152
567.068,17.7400016784668
567.078,1.15000009536743
567.088,-10.0800008773804
567.098,-8.78000068664551
567.108,-12.2500009536743
567.118,-26.3900012969971
567.128,-20.8200016021729
567.138,-9.3100004196167
567.148,-3.67000007629395
567.158,-7.35000038146973
567.168,-20.2600002288818
567.178,-18.6500015258789
567.187,-10.2200002670288
567.197,-4.41000032424927
567.207,-12.6000003814697
567.217,-17.6700000762939
567.227,-15.5700006484985
567.237,2.03000020980835
567.247,-9.20000076293945
567.257,-10.9200000762939
567.267,-2.45000004768372
567.277,-0.240000009536743
567.287,-4.76000022888184
567.297,2.90000009536743
567.307,1.4300000667572
567.317,-7.21000051498413
567.327,-1.75000011920929
567.337,4.0600004196167
567.347,-3.15000009536743
567.357,11.8600006103516
567.367,19.1100006103516
567.377,17.0100002288818
567.386,35.9800033569336
567.396,34.3300018310547
567.406,11.4400005340576
567.416,13.8600006103516
567.426,13.2300004959106
567.436,-2.20000004768372
567.446,-11.0200004577637
567.456,-19.6300010681152
567.466,-18.060001373291
567.476,-25.6900005340576
567.486,-21.2800006866455
567.496,-21.5900001525879
567.506,-27.5400009155273
567.516,-18.480001449585
567.526,-11.3000001907349
567.536,-31.1100006103516
567.546,-10.1100006103516
567.556,-16.1300010681152
567.566,-22.8200016021729
567.576,-31.2500019073486
567.584,-35.6300010681152
567.594,-54.6000022888184
567.604,-59.2200012207031
567.614,-40.8800010681152
567.624,-45.3200035095215
567.634,-46.0900039672852
567.644,-18.6500015258789
567.654,-12.2100009918213
567.664,-24.5300006866455
567.674,-13.2300004959106
567.684,10.3600006103516
567.694,15.3300008773804
567.704,20.0500011444092
567.714,59.9900016784668
567.724,106.540008544922
567.734,128.940002441406
567.744,143.220001220703
567.754,144.370010375977
567.764,148.220001220703
567.774,127.400009155273
567.778,-13.1200008392334
567.788,-49.870002746582
567.798,-78.0500030517578
567.808,-87.1800079345703
567.818,-102.300003051758
567.828,-114.060005187988
567.838,-110.140007019043
567.848,-103.110008239746
567.858,-96.4600067138672
567.868,-78.5
567.878,-57.1500015258789
567.888,-23.5200004577637
567.898,9.27000045776367
567.908,52.5700035095215
567.918,100.76000213623
567.928,138.810012817383
567.937,168.560012817383
567.947,184.240005493164
567.957,197.43000793457
567.967,185.600006103516
567.977,159.84001159668
567.987,143.990005493164
567.997,133.520004272461
568.007,123.270004272461
568.017,105.490005493164
568.027,91.8400039672852
568.037,101.110008239746
568.047,111.890007019043
568.057,111.26000213623
568.067,129.810012817383
568.077,144.790008544922
568.087,160.650009155273
568.097,174.440002441406
568.107,174.020004272461
568.117,184.520004272461
568.127,193.480010986328
568.136,196.030014038086
568.146,201.910003662109
568.156,181.650009155273
568.166,150.040008544922
568.176,136.389999389648
568.186,127.92000579834
568.196,96.0400009155273
568.206,44.2700004577637
568.216,19.980001449585
568.226,4.79000043869019
568.236,-15.8500003814697
568.246,-45.2200012207031
568.256,-80.0100021362305
568.266,-102.270004272461
568.276,-114.590003967285
568.286,-131.389999389648
568.296,-131.770004272461
568.306,-112.490005493164
568.316,-82.6300048828125
568.326,-49.8000030517578
568.334,7.10000038146973
568.344,56.310001373291
568.354,98.8400039672852
568.364,123.690002441406
568.374,156.550003051758
568.384,195.790008544922
568.394,203.800003051758
568.404,191.380004882812
568.414,180.880004882812
568.424,173.210006713867
568.434,161.700012207031
568.444,149.760009765625
568.454,127.570007324219
568.464,104.090003967285
568.474,89.0700073242188
568.484,74.9700012207031
568.494,49.7700004577637
568.504,40.3500022888184
568.514,32.7600021362305
568.524,6.6100001335144
568.528,14.1000003814697
568.538,23.9700012207031
568.548,40.6700019836426
568.558,30.3800010681152
568.568,14.3100004196167
568.578,-0.490000009536743
568.588,-20.0900001525879
568.598,-23.2700004577637
568.608,-37.1300010681152
568.618,-22.6800003051758
568.628,-7.45000028610229
568.638,0.630000054836273
568.648,31.810001373291
568.658,45.9200019836426
568.668,72.3400039672852
568.678,99.5700073242188
568.687,99.9200057983398
568.697,105.490005493164
568.707,101.780006408691
568.717,111.020004272461
568.727,106.120002746582
568.737,83.1900024414062
568.747,66.8800048828125
568.757,71.5699996948242
568.767,79.3800048828125
568.777,57.5700035095215
568.787,31.6400012969971
568.797,8.43000030517578
568.807,-1.99000012874603
568.817,-9.3100004196167
568.827,-38.25
568.837,-74.7200012207031
568.847,-109.51000213623
568.857,-124.700004577637
568.867,-125.93000793457
568.877,-132.160003662109
568.885,-131.980010986328
568.895,-112.000007629395
568.905,-76.3300018310547
568.915,-9.10000038146973
568.925,35.0300025939941
568.935,51.3800010681152
568.945,68.5300064086914
568.955,85.8200073242188
568.965,104.580001831055
568.975,137.300003051758
568.985,124.390007019043
568.995,96.3200073242188
569.005,70.1700057983398
569.015,42.1000022888184
569.025,13.3300008773804
569.035,-53.5500030517578
569.045,-120.750007629395
569.055,-152.070007324219
569.065,-155.710006713867
569.075,-136.670013427734
569.084,-108.880004882812
569.094,-68.6700057983398
569.104,-20.7200012207031
569.114,11.7200002670288
569.124,57.6100044250488
569.134,97.7500076293945
569.144,92.8500061035156
569.154,96.0000076293945
569.164,87.0400009155273
569.174,84.2400054931641
569.184,87.4600067138672
569.194,77.7000045776367
569.204,73.6000061035156
569.214,81.4100036621094
569.224,77.5600051879883
569.234,88.0200042724609
569.244,90.0900039672852
569.254,76.2300033569336
569.264,58.1700019836426
569.274,48.4700012207031
569.278,76.2300033569336
569.288,94.0100021362305
569.298,124.530006408691
569.308,161.700012207031
569.318,127.780006408691
569.328,69.1900024414062
569.338,34.3300018310547
569.348,17.0400009155273
569.358,2.69000005722046
569.368,-11.9700002670288
569.378,-44.060001373291
569.388,-72.3800048828125
569.398,-61.6700019836426
569.408,-52.5300025939941
569.418,-8.40000057220459
569.428,-10.6700000762939
569.437,-22.6400012969971
569.447,-13.7200002670288
569.457,1.89000010490417
569.467,26.7400016784668
569.477,58.2400016784668
569.487,88.8600006103516
569.497,112.030006408691
569.507,166.390014648438
569.517,194.460006713867
569.527,192.600006103516
569.537,190.190002441406
569.547,157.850006103516
569.557,107.620002746582
569.567,49.9100036621094
569.577,-22.1200008392334
569.587,-101.080001831055
569.597,-152.600006103516
569.607,-191.800003051758
569.617,-229.84001159668
569.627,-231.350006103516
569.635,-187.490005493164
569.645,-118.540008544922
569.655,-13.9600009918213
569.665,71.9600067138672
569.675,142.100006103516
569.685,194.420013427734
569.695,251.650009155273
569.705,304.780029296875
569.715,291.160003662109
569.725,253.290008544922
569.735,180.110015869141
569.745,113.26000213623
569.755,50.9900016784668
569.765,-11.5800008773804
569.775,-64.5699996948242
569.785,-101.040008544922
569.795,-103.350006103516
569.805,-62.0900039672852
569.815,-5.21000003814697
569.825,25.6500015258789
569.834,47.810001373291
569.844,72.4800033569336
569.854,86.1700057983398
569.864,76.6800003051758
569.874,34.5100021362305
569.884,-32.4400024414062
569.894,-94.3600082397461
569.904,-117.42000579834
569.914,-131.950012207031
569.924,-124.560005187988
569.934,-86.9000015258789
569.944,-62.4700012207031
569.954,-26.8400020599365
569.964,12.1100006103516
569.974,30.8700008392334
569.984,22.0100002288818
569.994,-1.99000012874603
570.004,-14.6600008010864
570.014,-28.9400005340576
570.024,-34.5100021362305
570.028,113.780006408691
570.038,170.690002441406
570.048,181.370010375977
570.058,192.460006713867
570.068,203.940002441406
570.078,219.830017089844
570.088,206.150009155273
570.098,159.25
570.108,80.2200012207031
570.118,-28.2800006866455
570.128,-94.8100051879883
570.138,-113.540008544922
570.148,-144.690002441406
570.158,-162.190002441406
570.168,-172.510009765625
570.178,-176.540008544922
570.187,-151.550003051758
570.197,-119.100006103516
570.207,-97.0200042724609
570.217,-77.3800048828125
570.227,-66.7100067138672
570.237,-46.4400024414062
570.247,-19.1100006103516
570.257,14.7700004577637
570.267,53.1300010681152
570.277,87.8100051879883
570.287,116.650009155273
570.297,122.570007324219
570.307,134.710006713867
570.317,147.490005493164
570.327,152.810012817383
570.337,153.820007324219
570.347,138.350006103516
570.357,125.190002441406
570.367,115.500007629395
570.377,113.470008850098
570.385,104.93000793457
570.395,97.5100021362305
570.405,90.4700012207031
570.415,75.140007019043
570.425,69.1600036621094
570.435,53.8600044250488
570.445,42.560001373291
570.455,52.1500015258789
570.465,69.6100006103516
570.475,85.9900054931641
570.485,90.7500076293945
570.495,91.5200042724609
570.505,94.8100051879883
570.515,98.5200042724609
570.525,91.6600036621094
570.535,69.8600006103516
570.545,34.0500030517578
570.555,9.66000080108643
570.565,-18.7200012207031
570.575,-50.7800025939941
570.584,-82.7400054931641
570.594,-123.690002441406
570.604,-150.010009765625
570.614,-146.790008544922
570.624,-146.120010375977
570.634,-140.070007324219
570.644,-123.270004272461
570.654,-102.370002746582
570.664,-64.2600021362305
570.674,-24.1100006103516
570.684,3.67000007629395
570.694,24.7400016784668
570.704,38.3200035095215
570.714,43.120002746582
570.724,34.2300033569336
570.734,21.9400005340576
570.744,13.2600002288818
570.754,0.840000033378601
570.764,-15.5700006484985
570.774,-24.6700019836426
570.776,18.1600017547607
570.786,38.9200019836426
570.796,74.0600051879883
570.806,114.660003662109
570.816,155.290008544922
570.826,183.640014648438
570.836,215.560012817383
570.846,226.100006103516
570.856,236.140014648438
570.866,227.810012817383
570.876,211.890014648438
570.886,212.100006103516
570.896,205.270004272461
570.906,167.020004272461
570.916,125.650009155273
570.926,99.8200073242188
570.936,63.6300048828125
570.937,20.6100006103516
570.947,-29.6100006103516
570.957,-66.5699996948242
570.967,-71.2200012207031
570.977,-71.0500030517578
570.987,-70.6300048828125
570.997,-74.7200012207031
571.007,-45.5700035095215
571.017,0.170000001788139
571.027,47.3200035095215
571.037,75.0400009155273
571.047,93.8000030517578
571.057,113.990005493164
571.067,129.529998779297
571.077,129.850006103516
571.087,105.940002441406
571.097,82.7400054931641
571.107,63.870002746582
571.117,32.620002746582
571.127,-0.730000019073486
571.135,-34.2600021362305
571.145,-59.1500015258789
571.155,-76.2300033569336
571.165,-92.3300018310547
571.175,-105.240005493164
571.185,-97.8600082397461
571.195,-84.8000030517578
571.205,-79.5200042724609
571.215,-78.0800018310547
571.225,-64.6800003051758
571.235,-37.4500007629395
571.245,-21.2400016784668
571.255,-18.6900005340576
571.265,-14.3800010681152
571.275,-1.05000007152557
571.285,12.9800004959106
571.295,6.8600001335144
571.305,6.30000019073486
571.315,19.9500007629395
571.325,33.810001373291
571.334,27.7900009155273
571.344,11.2000007629395
571.354,-0.660000026226044
571.364,-6.82000017166138
571.374,-14.9800004959106
571.384,-36.75
571.394,-61.810001373291
571.404,-76.370002746582
571.414,-83.8200073242188
571.424,-98.3500061035156
571.434,-103.880004882812
571.444,-87.390007019043
571.454,-65.4100036621094
571.464,-77.8400039672852
571.474,-85.8500061035156
571.484,-59.3600044250488
571.494,-13.6500005722046
571.504,16.1700000762939
571.514,33.9800033569336
571.524,66.1800003051758
571.528,-36.2200012207031
571.538,-47.7000007629395
571.548,-75.9100036621094
571.558,-80.390007019043
571.568,-82.6700057983398
571.578,-102.790008544922
571.588,-122.01000213623
571.598,-112.700004577637
571.608,-95.6500015258789
571.618,-59.810001373291
571.628,-5.5600004196167
571.638,47.3900032043457
571.648,91.9800033569336
571.658,118.230003356934
571.668,120.050003051758
571.678,120.780006408691
571.687,107.730003356934
571.697,80.9500045776367
571.707,29.1900005340576
571.717,-6.89000034332275
571.727,-38.3200035095215
571.737,-67.6900024414062
571.747,-93.0600051879883
571.757,-116.160003662109
571.767,-153.330001831055
571.777,-189.450012207031
571.787,-211.570007324219
571.797,-212.800003051758
571.807,-214.580017089844
571.817,-204.290008544922
571.827,-191.830001831055
571.837,-161.910003662109
571.847,-128.690002441406
571.857,-106.190002441406
571.867,-83.3300018310547
571.877,-49.8400039672852
571.885,-12.3900003433228
571.895,-2.80000019073486
571.905,0.240000009536743
571.915,7.84000015258789
571.925,19.7400016784668
571.935,38.8800010681152
571.945,37.7300033569336
571.955,44.1000022888184
571.965,37.6900024414062
571.975,27.3300018310547
571.985,18.7200012207031
571.995,7.07000017166138
572.005,13.6100006103516
572.015,25.480001449585
572.025,34.5400009155273
572.035,42.9800033569336
572.045,63.1700019836426
572.055,79.6900024414062
572.065,86.0300064086914
572.075,81.9700012207031
572.084,66.7400054931641
572.094,67.9700012207031
572.104,74.1600036621094
572.114,76.0500030517578
572.124,76.9600067138672
572.134,75.0400009155273
572.144,98.3500061035156
572.154,122.600006103516
572.164,118.540008544922
572.174,99.1900024414062
572.184,68
572.194,45.2500038146973
572.204,28.5900020599365
572.214,2.69000005722046
572.224,-24.6400012969971
572.234,-48.4000015258789
572.244,-52.4600028991699
572.254,-45.5700035095215
572.264,-45.0800018310547
572.274,-38.1500015258789
572.278,-22.2200012207031
572.288,-52.6400032043457
572.298,-64.0100021362305
572.308,-87.8800048828125
572.318,-112.210006713867
572.328,-116.410003662109
572.338,-146.860000610352
572.348,-169.68000793457
572.358,-140.170013427734
572.368,-86.0300064086914
572.378,-0.140000000596046
572.388,54.6700019836426
572.398,104.890007019043
572.408,132.790008544922
572.418,147.210006713867
572.428,160.790008544922
572.437,129.110000610352
572.447,54.0700035095215
572.457,-8.96000003814697
572.467,-59.9500045776367
572.477,-90.370002746582
572.487,-111.580001831055
572.497,-135.59001159668
572.507,-157.360000610352
572.517,-159.770004272461
572.527,-142.620010375977
572.537,-138
572.547,-134.75
572.557,-122.990005493164
572.567,-106.68000793457
572.577,-86.620002746582
572.587,-48.4000015258789
572.597,-26.6700019836426
572.607,-3.04000020027161
572.617,27.4400005340576
572.627,66.3899993896484
572.635,101.360008239746
572.645,126.17000579834
572.655,135.310012817383
572.665,104.400001525879
572.675,67.1600036621094
572.685,43.1900024414062
572.695,-14.3500003814697
572.705,-64.5
572.715,-127.220008850098
572.725,-203.240005493164
572.735,-246.990005493164
572.745,-257
572.755,-238.070007324219
572.765,-193.550003051758
572.775,-115.080001831055
572.785,-47.7700004577637
572.795,20.1600017547607
572.805,87.7400054931641
572.815,111.160003662109
572.825,130.200012207031
572.834,158.580001831055
572.844,136.460006713867
572.854,109.160003662109
572.864,72.9700012207031
572.874,18.2000007629395
572.884,-8.01000022888184
572.894,-19.0400009155273
572.904,-36.1900024414062
572.914,-57.2600021362305
572.924,-67.9000015258789
572.934,-80.7100067138672
572.944,-92.7800064086914
572.954,-110.110008239746
572.964,-135.660003662109
572.974,-145.280014038086
572.984,-112.590003967285
572.994,-55.7900009155273
573.004,9.17000007629395
573.014,64.0500030517578
573.024,120.400009155273
573.028,41.4700012207031
573.038,-13.4700002670288
573.048,-60.0900039672852
573.058,-95.3000030517578
573.068,-130.510009765625
573.078,-170.130004882812
573.088,-172.510009765625
573.098,-147.030014038086
573.108,-138.320007324219
573.118,-144.510009765625
573.128,-137.620010375977
573.138,-123.480003356934
573.148,-108.92000579834
573.158,-90.6500015258789
573.168,-103.320007324219
573.178,-99.5000076293945
573.186,-75.7400054931641
573.196,-44.870002746582
573.206,-1.92000007629395
573.216,24.3200016021729
573.226,45.2500038146973
573.236,58.4100036621094
573.246,76.6500015258789
573.256,80.2900009155273
573.266,38.1500015258789
573.276,-35.7700004577637
573.286,-126.660003662109
573.296,-195.470016479492
573.306,-226.970016479492
573.316,-226.800018310547
573.326,-214.410003662109
573.336,-168.100006103516
573.346,-70.3100051879883
573.356,21.2100009918213
573.366,92.5700073242188
573.376,139.580001831055
573.385,160.68000793457
573.395,165.93000793457
573.405,159.670013427734
573.415,134.75
573.425,96.2100067138672
573.435,52.5300025939941
573.445,25.7200012207031
573.455,21.2100009918213
573.465,19.560001373291
573.475,2.10000014305115
573.485,-19.3200016021729
573.495,-30.8300018310547
573.505,-31.9900016784668
573.515,-38.7400016784668
573.525,-59.9500045776367
573.535,-78.2600021362305
573.545,-92.2900009155273
573.555,-83.890007019043
573.565,-65.7300033569336
573.575,-56.5200042724609
573.584,-30.4500007629395
573.594,3.71000027656555
573.604,59.0100021362305
573.614,116.650009155273
573.624,132.860000610352
573.634,128.900009155273
573.644,135.520004272461
573.654,127.43000793457
573.664,101.320007324219
573.674,66.6399993896484
573.684,18.8300018310547
573.694,-10.6000003814697
573.704,-16.060001373291
573.714,-24.6400012969971
573.724,-35.1700019836426
573.734,-31.6700019836426
573.744,-17.6000003814697
573.754,-0.660000026226044
573.764,7.91000032424927
573.774,5.42000007629395
573.778,60.620002746582
573.788,68.4900054931641
573.798,71.640007019043
573.808,64.75
573.818,33.560001373291
573.828,15.4300003051758
573.838,10.0400009155273
573.848,-4.58000040054321
573.858,-23.3400020599365
573.868,-75
573.878,-104.230003356934
573.888,-120.68000793457
573.898,-118.720008850098
573.908,-134.779998779297
573.918,-156.450012207031
573.928,-152.910003662109
573.936,-152.950012207031
573.946,-91.3100051879883
573.956,-43.5000038146973
573.966,-17.5300006866455
573.976,25.9700012207031
573.986,48.0200004577637
573.996,41.8900032043457
574.006,17.1800003051758
574.016,-7.77000045776367
574.026,-29.7500019073486
574.036,-52.7400016784668
574.046,-60.620002746582
574.056,-82.390007019043
574.066,-94.5000076293945
574.076,-90.1600036621094
574.086,-58.4800033569336
574.096,-24.1100006103516
574.106,15.7500009536743
574.116,10.3200006484985
574.126,-6.6100001335144
574.135,4.37000036239624
574.145,21.560001373291
574.155,36.4300003051758
574.165,19.1100006103516
574.175,-4.01999998092651
574.185,-24.0100002288818
574.195,7.49000024795532
574.205,-21.310001373291
574.215,-70.7300033569336
574.225,-53.9700012207031
574.235,-45.7800025939941
574.245,-40
574.255,-27.8600006103516
574.265,-22.6800003051758
574.275,-2.73000001907349
574.285,29.9600009918213
574.295,2.34000015258789
574.305,-19.3200016021729
574.315,-6.58000040054321
574.325,1.92000007629395
574.334,-4.65000009536743
574.344,-21.8000011444092
574.354,-12.2500009536743
574.364,21.0000019073486
574.374,40.4200019836426
574.384,27.9300022125244
574.394,20.0900001525879
574.404,28.7000007629395
574.414,12.7000007629395
574.424,8.57000064849854
574.434,5.95000028610229
574.444,-17.7100009918213
574.454,-27.5800018310547
574.464,-24.0100002288818
574.474,-37.4100036621094
574.484,-28.4500007629395
574.494,-25.4100017547607
574.504,-38.9200019836426
574.514,-37.9000015258789
574.524,-19.0700016021729
574.528,-36.1500015258789
574.538,-49.870002746582
574.548,-19.25
574.558,0.490000009536743
574.568,-27.7200012207031
574.578,-17.2200012207031
574.588,-17.6700000762939
574.598,-33.7400016784668
574.608,1.05000007152557
574.618,33.8400001525879
574.628,43.9600028991699
574.638,9.3100004196167
574.648,28.0300006866455
574.658,49.9100036621094
574.668,39.9700012207031
574.678,12.2500009536743
574.686,-49.7300033569336
574.696,-85.7100067138672
574.706,-123.370002746582
574.716,-177.030014038086
574.726,-204.050003051758
574.736,-190.330001831055
574.746,-173.770004272461
574.756,-128.310012817383
574.766,-53.6900024414062
574.776,39.7200012207031
574.786,103.530006408691
574.796,148.820007324219
574.806,181.400009155273
574.816,188.260009765625
574.826,159.560012817383
574.836,107.380004882812
574.846,49.2400016784668
574.856,-5.32000017166138
574.866,-59.7100028991699
574.876,-78.9900054931641
574.885,-63.2800025939941
574.895,-55.0200042724609
574.905,-57.4700012207031
574.915,-30.4500007629395
574.925,20.0500011444092
574.935,50.7100028991699
574.945,65.3400039672852
574.955,100.030006408691
574.965,117.040008544922
574.975,114.730003356934
574.985,127.540008544922
574.995,136.5
575.005,134.120010375977
575.015,131.25
575.025,148.080001831055
575.035,138.630004882812
575.045,116.130004882812
575.055,82.9100036621094
575.065,70.2800064086914
575.075,41.7500038146973
575.084,-10.3200006484985
575.094,-46.9000015258789
575.104,-94.1800079345703
575.114,-140.980010986328
575.124,-164.010009765625
575.134,-172.370010375977
575.144,-168.870010375977
575.154,-148.220001220703
575.164,-108.990005493164
575.174,-48.4700012207031
575.184,-4.62000036239624
575.194,47.8800010681152
575.204,96.9100036621094
575.214,113.540008544922
575.224,116.620002746582
575.234,114.480003356934
575.244,91.870002746582
575.254,59.180004119873
575.264,29.8200016021729
575.274,21.1700000762939
575.278,-46.4400024414062
575.288,-51.4500007629395
575.298,-47.3900032043457
575.308,-40.3200035095215
575.318,-33.6000022888184
575.328,-7.59000015258789
575.338,23.2400016784668
575.348,24.8800010681152
575.358,6.93000030517578
575.368,-9.52000045776367
575.378,-16.9700012207031
575.388,-44.4800033569336
575.398,-85.5400009155273
575.408,-128.550003051758
575.418,-177.34001159668
575.428,-215.280014038086
575.436,-218.150009155273
575.446,-200.510009765625
575.456,-172.200012207031
575.466,-110.350006103516
575.476,-27.3000011444092
575.486,45.2500038146973
575.496,121.76000213623
575.506,173.490005493164
575.516,198.170013427734
575.526,198.100006103516
575.536,173.070007324219
575.546,121.450004577637
575.556,54.2500038146973
575.566,-6.68000030517578
575.576,-48.680004119873
575.586,-74.7600021362305
575.596,-88.8600006103516
575.606,-89.0400009155273
575.616,-79.5200042724609
575.626,-61.3500022888184
575.635,-38.1500015258789
575.645,-0.910000026226044
575.655,26.4600009918213
575.665,46.3000030517578
575.675,74.5800018310547
575.685,94.4300079345703
575.695,84.5200042724609
575.705,64.2600021362305
575.715,23.8300018310547
575.725,-11.4100008010864
575.735,-23.7600002288818
575.745,-27.1900005340576
575.755,-7.80000019073486
575.765,-2.66000008583069
575.775,-1.78000009059906
575.785,0.21000000834465
575.795,18.1600017547607
575.805,15.4000005722046
575.815,32.0200004577637
575.825,46.6900024414062
575.834,79.7300033569336
575.844,95.6500015258789
575.854,87.1100006103516
575.864,62.7200012207031
575.874,12.3900003433228
575.884,-61.3200035095215
575.894,-129.529998779297
575.904,-188.120010375977
575.914,-252.030014038086
575.924,-297.010009765625
575.934,-313.77001953125
575.944,-323.430023193359
575.954,-334.700012207031
575.964,-340.160003662109
575.974,-330.150024414062
575.984,-288.5
575.994,-192.950012207031
576.004,-52.3600006103516
576.014,79.2000045776367
576.024,156.970001220703
576.028,205.030014038086
576.038,110.530006408691
576.048,25.4400005340576
576.058,-24.6700019836426
576.068,-58.0300025939941
576.078,-95.4800033569336
576.088,-125.890007019043
576.098,-112.840003967285
576.108,-50.680004119873
576.118,-64.0800018310547
576.128,-99.8200073242188
576.138,-97.6500015258789
576.148,-89.0700073242188
576.158,-62.1900024414062
576.168,-33.3500022888184
576.178,-27.0500011444092
576.186,-19.2800006866455
576.196,25.060001373291
576.206,124.980003356934
576.216,229.210006713867
576.226,270.650024414062
576.236,280.450012207031
576.246,248.080017089844
576.256,186.480010986328
576.266,90.0200042724609
576.276,-16.310001373291
576.286,-99.3300018310547
576.296,-168.660003662109
576.306,-204.920013427734
576.316,-224.030014038086
576.326,-252.940017700195
576.336,-276.529998779297
576.346,-246.43000793457
576.356,-193.200012207031
576.366,-171.010009765625
576.376,-133.84001159668
576.385,-80.3600006103516
576.395,-23.6200008392334
576.405,36.1500015258789
576.415,114.310005187988
576.425,157.360000610352
576.435,191.480010986328
576.445,236.700012207031
576.455,254.970016479492
576.465,215.420013427734
576.475,149.550003051758
576.485,83.7900009155273
576.495,4.8600001335144
576.505,-66.9900054931641
576.515,-111.090003967285
576.525,-139.120010375977
576.535,-171.18000793457
576.545,-179.480010986328
576.555,-166.070007324219
576.565,-168.660003662109
576.575,-163.900009155273
576.584,-122.080009460449
576.594,-60.8600044250488
576.604,-7.98000049591064
576.614,37.1700019836426
576.624,99.5700073242188
576.634,165.93000793457
576.644,189.240005493164
576.654,173.18000793457
576.664,115.67000579834
576.674,31.4300022125244
576.684,-44.870002746582
576.694,-98.8400039672852
576.704,-125.650009155273
576.714,-141.400009155273
576.724,-132.790008544922
576.734,-106.330001831055
576.744,-114.17000579834
576.754,-87.0400009155273
576.764,-12.8100004196167
576.774,22.1500015258789
576.778,115.390007019043
576.788,103.630004882812
576.798,57.6400032043457
576.808,38.9200019836426
576.818,45.7100028991699
576.828,32.370002746582
576.838,9.20000076293945
576.848,3.3600001335144
576.858,15.3300008773804
576.868,29.8200016021729
576.878,37.5200004577637
576.888,50.9600028991699
576.898,39.0200004577637
576.908,3.53000020980835
576.918,-2.52000021934509
576.928,-29.8200016021729
576.936,-51.620002746582
576.946,-34.75
576.956,-16.2000007629395
576.966,-17.810001373291
576.976,-11.7900009155273
576.986,-7.70000028610229
576.996,-21.3500003814697
577.006,-17.4600009918213
577.016,-3.46000027656555
577.026,-7.4200005531311
577.036,0
577.046,10.9900007247925
577.056,8.15000057220459
577.066,7.00000047683716
577.076,18.480001449585
577.086,33.5300025939941
577.096,27.3300018310547
577.106,15.8900003433228
577.116,10.2500009536743
577.126,-0.350000023841858
577.135,-22.1200008392334
577.145,-35
577.155,-24.6400012969971
577.165,-12.1400003433228
577.175,-13.7900009155273
577.185,-11.8300008773804
577.195,-27.230001449585
577.205,-60.7600021362305
577.215,-80.8800048828125
577.225,-84.8000030517578
577.235,-74.7600021362305
577.245,-66.3199996948242
577.255,-38.7400016784668
577.265,14.9100008010864
577.275,59.8800010681152
577.285,100.620002746582
577.295,160.470001220703
577.305,220.530014038086
577.315,257.670013427734
577.325,276.360015869141
577.328,133
577.338,54.4600028991699
577.348,-17.5700016021729
577.358,-65.4100036621094
577.368,-90.7500076293945
577.378,-84.9800033569336
577.388,-72.8300018310547
577.398,-66.0800018310547
577.408,-58.0300025939941
577.418,-27.9300022125244
577.428,-21.5200004577637
577.438,-26.6700019836426
577.448,-44.7600021362305
577.458,-57.9200019836426
577.468,-77.2800064086914
577.478,-104.050003051758
577.488,-114.270004272461
577.497,-64.0500030517578
577.507,-44.3800010681152
577.517,-14.0700006484985
577.527,21.9400005340576
577.537,50.1500015258789
577.547,65.6900024414062
577.557,77.7700042724609
577.567,92.9600067138672
577.577,111.090003967285
577.587,125.120002746582
577.597,148.360000610352
577.607,178.220001220703
577.617,204.290008544922
577.627,221.690017700195
577.637,222.490005493164
577.647,212.59001159668
577.657,191.240005493164
577.667,172.760009765625
577.677,147.800003051758
577.686,132.370010375977
577.696,135.450012207031
577.706,147.139999389648
577.716,179.690002441406
577.726,221.020004272461
577.736,230.960006713867
577.746,229.250015258789
577.756,241.600006103516
577.766,223.400009155273
577.776,199.460006713867
577.786,186.720016479492
577.796,173.530014038086
577.806,161.380004882812
577.816,167.720001220703
577.826,169.960006713867
577.836,167.260009765625
577.846,172.270004272461
577.856,173.350006103516
577.866,142.800003051758
577.876,123.900009155273
577.885,108.290008544922
577.895,80.5300064086914
577.905,57.9200019836426
577.915,42.9800033569336
577.925,42.7300033569336
577.935,42.7300033569336
577.945,34.2300033569336
577.955,40
577.965,51.6900024414062
577.975,53.8300018310547
577.985,50.8900032043457
577.995,46.5100021362305
578.005,48.8900032043457
578.015,57.2200012207031
578.025,79.5500030517578
578.035,92.6100006103516
578.045,99.8200073242188
578.055,126.070007324219
578.065,145.460006713867
578.075,170.34001159668
578.077,13.5800008773804
578.087,-19.4900016784668
578.097,-69.3300018310547
578.107,-133.520004272461
578.117,-175.030014038086
578.127,-194.420013427734
578.137,-198.800003051758
578.147,-195.510009765625
578.157,-200.900009155273
578.167,-183.750015258789
578.177,-145.110000610352
578.187,-91.3800048828125
578.197,-62.3300018310547
578.207,-55.370002746582
578.217,-48.4000015258789
578.227,-53.7200012207031
578.237,-44.5500030517578
578.247,-47.8400039672852
578.257,-74.4400024414062
578.267,-68.2100067138672
578.277,-47.8400039672852
578.287,-12.8400001525879
578.297,5.74000024795532
578.307,0.140000000596046
578.317,-32.1599998474121
578.327,-51.870002746582
578.337,-64.8500061035156
578.347,-49.7000007629395
578.357,-56.1700019836426
578.367,-63.870002746582
578.377,-60.930004119873
578.387,-34.0200004577637
578.397,43.7100028991699
578.407,99.7100067138672
578.417,147.420013427734
578.427,213.780014038086
578.436,269.320007324219
578.446,332.570007324219
578.456,380.200012207031
578.466,407.050018310547
578.476,402.850006103516
578.486,339.570007324219
578.496,214.720016479492
578.506,121.870002746582
578.516,38.3600006103516
578.526,-62.7200012207031
578.536,-133.980010986328
578.546,-170.660003662109
578.556,-153.260009765625
578.566,-107.590003967285
578.576,-74.4400024414062
578.586,-50.5700035095215
578.596,-12.3500003814697
578.606,16.6200008392334
578.616,27.1600017547607
578.626,29.1200008392334
578.635,-5.70000028610229
578.645,-65.9000015258789
578.655,-120.780006408691
578.665,-170.200012207031
578.675,-211.050003051758
578.685,-265.580017089844
578.695,-294.910003662109
578.705,-319.970001220703
578.715,-325.360015869141
578.725,-321.370025634766
578.735,-286.650024414062
578.745,-225.68000793457
578.755,-156.480010986328
578.765,-79.620002746582
578.775,8.71000003814697
578.785,98.5600051879883
578.795,180.700012207031
578.805,251.540008544922
578.815,301.420013427734
578.825,342.860015869141
578.829,317.730010986328
578.839,311.920013427734
578.849,284.410003662109
578.859,226.200012207031
578.869,130.900009155273
578.879,38.8500022888184
578.889,-63.7700042724609
578.899,-125.370002746582
578.909,-162.050003051758
578.919,-172.020004272461
578.929,-146.370010375977
578.939,-88.8600006103516
578.949,-4.62000036239624
578.959,86.620002746582
578.969,193.440002441406
578.979,279.960021972656
578.989,316.260009765625
578.997,322.030029296875
579.007,274.080017089844
579.017,216.330017089844
579.027,120.750007629395
579.037,25.5800018310547
579.047,-51.5900039672852
579.057,-113.960006713867
579.067,-138.600006103516
579.077,-169.500015258789
579.087,-194.600006103516
579.097,-189.800003051758
579.107,-180.000015258789
579.117,-159.810012817383
579.127,-133.450012207031
579.137,-113.080001831055
579.147,-110.280006408691
579.157,-99.3600082397461
579.167,-64.1900024414062
579.177,-13.5100002288818
579.186,35.4500007629395
579.196,58.5200042724609
579.206,92.8200073242188
579.216,123.970008850098
579.226,165.09001159668
579.236,188.790008544922
579.246,170.690002441406
579.256,140.450012207031
579.266,111.190002441406
579.276,69.3300018310547
579.286,32.8300018310547
579.296,-24.5300006866455
579.306,-83.2300033569336
579.316,-105.870002746582
579.326,-111.540008544922
579.336,-111.720008850098
579.346,-94.1800079345703
579.356,-85.4300003051758
579.366,-61.9100036621094
579.376,-17.1100006103516
579.385,11.6500005722046
579.395,42.3800010681152
579.405,65.1700057983398
579.415,81.0900039672852
579.425,94.6000061035156
579.435,94.0100021362305
579.445,99.2900009155273
579.455,101.250007629395
579.465,100.730003356934
579.475,112.030006408691
579.485,116.93000793457
579.495,124.42000579834
579.505,152.320007324219
579.515,154.420013427734
579.525,118.650009155273
579.535,81.7900009155273
579.545,65.7300033569336
579.555,60.2000045776367
579.565,59.0100021362305
579.575,46.5500030517578
579.577,-1.82000005245209
579.587,-69.2600021362305
579.597,-147
579.607,-204.780014038086
579.617,-274.5
579.627,-312.720001220703
579.637,-347.480010986328
579.647,-373.870025634766
579.657,-347.060028076172
579.667,-289.450012207031
579.677,-225.290008544922
579.687,-169.960006713867
579.697,-110.460006713867
579.707,-32.9700012207031
579.717,39.0900001525879
579.727,97.2300033569336
579.737,120.960006713867
579.747,113.190002441406
579.757,122.67000579834
579.767,126.730003356934
579.777,110.210006713867
579.787,97.6800079345703
579.797,90.7200012207031
579.807,96.2100067138672
579.817,88.9000015258789
579.827,81.370002746582
579.837,75.4900054931641
579.847,80.0800018310547
579.857,101.990005493164
579.867,129.010009765625
579.877,157.5
579.887,185.390014648438
579.897,222.280014038086
579.907,250.000015258789
579.917,269.010009765625
579.927,263.340026855469
579.936,216.470016479492
579.946,159.740005493164
579.956,100.520004272461
579.966,45.5300025939941
579.976,6.6100001335144
579.986,-42.8000030517578
579.996,-65.5500030517578
580.006,-82.2800064086914
580.016,-55.6100044250488
580.026,-18.230001449585
580.036,-0.280000001192093
580.046,10.0800008773804
580.056,19.560001373291
580.066,18.0200004577637
580.076,22.1500015258789
580.086,44.310001373291
580.096,57.7100028991699
580.106,79.4800033569336
580.116,97.5400009155273
580.126,70.3500061035156
580.135,52.5300025939941
580.145,92.5000076293945
580.155,93.4500045776367
580.165,90.1900024414062
580.175,112.17000579834
580.185,38.3900032043457
580.195,28.3500022888184
580.205,73.8500061035156
580.215,40.7400016784668
580.225,10.7800006866455
580.235,-39.0900001525879
580.245,-59.7400016784668
580.255,4.65000009536743
580.265,77.7000045776367
580.275,83.4700012207031
580.285,44.5500030517578
580.295,96.4200057983398
580.305,160.230010986328
580.315,223.750015258789
580.325,259.870025634766
580.328,246.890014648438
580.338,147.870010375977
580.348,34.0500030517578
580.358,-68.3199996948242
580.368,-150.360000610352
580.378,-178.570007324219
580.388,-292.810028076172
580.398,-259.140014648438
580.408,-221.270004272461
580.418,-191.550003051758
580.428,-136.460006713867
580.438,-73.7400054931641
580.448,-16.8700008392334
580.458,45.1100006103516
580.468,63.1000022888184
580.478,65.6900024414062
580.488,114.130004882812
580.497,103.950004577637
580.507,14.5900011062622
580.517,-68.7400054931641
580.527,-131.350006103516
580.537,-159.070007324219
580.547,-142.240005493164
580.557,-151.060012817383
580.567,-121.660003662109
580.577,-89.2100067138672
580.587,-26.3900012969971
580.597,45.6400032043457
580.607,100.200004577637
580.617,108.67000579834
580.627,96.140007019043
580.637,108.810005187988
580.647,119.100006103516
580.657,97.5400009155273
580.667,50.6100006103516
580.677,5.46000003814697
580.686,-1.96000003814697
580.696,8.71000003814697
580.706,-2.34000015258789
580.716,-5.32000017166138
580.726,-14.9400005340576
580.736,-1.85000014305115
580.746,21.8000011444092
580.756,6.68000030517578
580.766,-5.67000007629395
580.776,2.76000022888184
580.786,5.5600004196167
580.796,10.3200006484985
580.806,2.13000011444092
580.816,13.1200008392334
580.826,34.0500030517578
580.836,27.1200008392334
580.846,30.5500011444092
580.856,26.9100017547607
580.866,29.5000019073486
580.876,35.0700035095215
580.885,19.6300010681152
580.895,23.9000015258789
580.905,26.8400020599365
580.915,1.22000002861023
580.925,-4.62000036239624
580.935,12.0700006484985
580.945,13.4700002670288
580.955,-0.170000001788139
580.965,-12.4600009918213
580.975,-18.7900009155273
580.985,-14.3100004196167
580.995,-14.8700008392334
581.005,-29.9200019836426
581.015,-30.480001449585
581.025,-15.0500011444092
581.035,-5.98000049591064
581.045,1.57000005245209
581.055,7.49000024795532
581.065,23.9000015258789
581.075,17.7100009918213
581.077,-26.4600009918213
581.087,-39.6500015258789
581.097,-14.4500007629395
581.107,1.36000001430511
581.117,-2.27000021934509
581.127,6.72000026702881
581.137,37.5900001525879
581.147,39.1600036621094
581.157,3.99000024795532
581.167,0.310000002384186
581.177,11.8600006103516
581.187,-1.85000014305115
581.197,-23.2000007629395
581.207,-25.3000011444092
581.217,-15.9900007247925
581.227,-23.2000007629395
581.237,-24.7400016784668
581.247,16.5200004577637
581.257,8.82000064849854
581.267,3.99000024795532
581.277,29.2200012207031
581.287,35.1700019836426
581.297,7.59000015258789
581.307,10.2900009155273
581.317,30.1000022888184
581.327,15.7800006866455
581.337,-3.53000020980835
581.347,8.01000022888184
581.357,10.9200000762939
581.367,-9.17000007629395
581.377,-8.85000038146973
581.387,5.04000043869019
581.397,0.730000019073486
581.407,-23.2700004577637
581.417,-15.1200008392334
581.427,-5.32000017166138
581.436,-21.8700008392334
581.446,-26.4200019836426
581.456,4.13000011444092
581.466,8.99000072479248
581.476,-16.6900005340576
581.486,-8.71000003814697
581.496,11.5800008773804
581.506,9.83000087738037
581.516,-3.67000007629395
581.526,5.46000003814697
581.536,4.62000036239624
581.546,-14.3500003814697
581.556,-16.2400016784668
581.566,-11.0600004196167
581.576,-18.4400005340576
581.586,-29.9200019836426
581.596,-20.6500015258789
581.606,4.55000019073486
581.616,-12.6700010299683
581.626,-6.09000015258789
581.634,27.2600021362305
581.644,26.810001373291
581.654,10.0400009155273
581.664,22.4300003051758
581.674,25.6500015258789
581.684,1.19000005722046
581.694,11.7900009155273
581.704,23.730001449585
581.714,6.96000051498413
581.724,0.800000011920929
581.734,14.1000003814697
581.744,9.10000038146973
581.754,-6.40000009536743
581.764,22.1200008392334
581.774,27.5100021362305
581.784,-5.32000017166138
581.794,-26.7700004577637
581.804,-35.3500022888184
581.814,-43.8200035095215
581.824,-52.9500007629395
581.828,36.9200019836426
581.838,20.3700008392334
581.848,13.7200002670288
581.858,12.7000007629395
581.868,14.4200010299683
581.878,13.7900009155273
581.888,46.3400039672852
581.898,56.310001373291
581.908,33.4900016784668
581.918,33.7000007629395
581.928,15.5400009155273
581.938,-26.3900012969971
581.948,-21.3800010681152
581.958,-22.8200016021729
581.968,-79.4800033569336
581.978,-103.980003356934
581.987,-92.4700012207031
581.997,-101.220001220703
582.007,-86.3800048828125
582.017,-57.5000038146973
582.027,-44.9400024414062
582.037,-36.2900009155273
582.047,-15.8900003433228
582.057,8.71000003814697
582.067,39.4100036621094
582.077,86.4100036621094
582.087,108.18000793457
582.097,87.8500061035156
582.107,68.3500061035156
582.117,66.7400054931641
582.127,37.870002746582
582.137,-5.28000020980835
582.147,-17.6000003814697
582.157,-36.5400009155273
582.167,-59.9200019836426
582.177,-42.9100036621094
582.186,-43.2900009155273
582.196,-63.1700019836426
582.206,-40.2800025939941
582.216,-9.20000076293945
582.226,-10.1500005722046
582.236,-5.04000043869019
582.246,15.2600011825562
582.256,15.2900009155273
582.266,15.6100006103516
582.276,24.6400012969971
582.286,9.34000015258789
582.296,-6.93000030517578
582.306,-1.85000014305115
582.316,0.350000023841858
582.326,-14.0700006484985
582.336,-12.8800010681152
582.346,-12.8100004196167
582.356,-40.0400009155273
582.366,-30.9000015258789
582.376,-19
582.384,-27.6500015258789
582.394,-25.3400020599365
582.404,-0.560000002384186
582.414,6.44000053405762
582.424,11.7600002288818
582.434,34.4400024414062
582.444,36.3600006103516
582.454,27.2600021362305
582.464,21.560001373291
582.474,-11.9000005722046
582.484,-55.0200042724609
582.494,-78.2600021362305
582.504,-109.93000793457
582.514,-156.030014038086
582.524,-149.34001159668
582.534,-127.780006408691
582.544,-112.840003967285
582.554,-61.0700035095215
582.564,-27.8200016021729
582.574,-8.22000026702881
582.576,46.370002746582
582.586,49.2400016784668
582.596,44.1700019836426
582.606,27.5400009155273
582.616,17.9200000762939
582.626,-2.38000011444092
582.636,-30.5500011444092
582.646,-18.6500015258789
582.656,-17.7400016784668
582.666,-33.2100028991699
582.676,-35.310001373291
582.686,-31.5000019073486
582.696,-34.0900001525879
582.706,-31.0800018310547
582.716,-33.4200019836426
582.726,-62.8900032043457
582.736,-75.25
582.737,-43.6100006103516
582.747,-22.7800006866455
582.757,-17.7400016784668
582.767,-0.630000054836273
582.777,30.480001449585
582.787,49.2100028991699
582.797,73.9200057983398
582.807,92.5400009155273
582.817,95.5500030517578
582.827,99.2600021362305
582.837,96.9500045776367
582.847,75.4600067138672
582.857,30.310001373291
582.867,-9.73000049591064
582.877,-42.6300010681152
582.887,-88.3400039672852
582.897,-126.660003662109
582.907,-145.770004272461
582.917,-159.420013427734
582.927,-160.020004272461
582.936,-124.560005187988
582.946,-101.500007629395
582.956,-97.7500076293945
582.966,-63.8000030517578
582.976,-27.3300018310547
582.986,-29.0500011444092
582.996,-35
583.006,-37.310001373291
583.016,-68.3199996948242
583.026,-101.040008544922
583.036,-106.43000793457
583.046,-103.630004882812
583.056,-103.140007019043
583.066,-82.9500045776367
