Time,AccelerometerX
238.502,-0.94580078125
238.512,-0.8623046875
238.522,-0.6435546875
238.53,-0.3515625
238.54,-0.0849609375
238.55,0.05291748046875
238.56,0.0253448486328125
238.57,-0.126708984375
238.58,-0.333251953125
238.59,-0.5361328125
238.6,-0.7001953125
238.61,-0.79736328125
238.62,-0.8037109375
238.63,-0.7099609375
238.64,-0.5234375
238.65,-0.287841796875
238.66,-0.07513427734375
238.67,0.05303955078125
238.68,0.06549072265625
238.69,-0.0270538330078125
238.7,-0.177490234375
238.71,-0.335693359375
238.72,-0.4609375
238.729,-0.53076171875
238.739,-0.560546875
238.749,-0.58349609375
238.759,-0.61572265625
238.769,-0.6416015625
238.779,-0.63671875
238.789,-0.58837890625
238.799,-0.50244140625
238.809,-0.392578125
238.819,-0.275390625
238.829,-0.1651611328125
238.839,-0.08135986328125
238.849,-0.05126953125
238.859,-0.07391357421875
238.869,-0.10546875
238.879,-0.10150146484375
238.889,-0.05816650390625
238.899,-0.0103530883789062
238.909,-0.0049285888671875
238.919,-0.0689697265625
238.924,-0.78173828125
238.934,-0.916015625
238.944,-1.044921875
238.954,-1.1337890625
238.964,-1.146484375
238.974,-1.05859375
238.984,-0.86279296875
238.994,-0.5908203125
239.004,-0.33154296875
239.014,-0.1798095703125
239.024,-0.154541015625
239.034,-0.2000732421875
239.044,-0.2587890625
239.054,-0.310302734375
239.064,-0.3583984375
239.074,-0.409423828125
239.082,-0.46484375
239.092,-0.53173828125
239.102,-0.60791015625
239.112,-0.67333984375
239.122,-0.712890625
239.132,-0.7373046875
239.142,-0.77587890625
239.152,-0.849609375
239.162,-0.9580078125
239.172,-1.0712890625
239.182,-1.130859375
239.192,-1.087890625
239.202,-0.94775390625
239.212,-0.74853515625
239.222,-0.53564453125
239.232,-0.352294921875
239.242,-0.2314453125
239.252,-0.1787109375
239.262,-0.178955078125
239.272,-0.23388671875
239.28,-0.364013671875
239.29,-0.5615234375
239.3,-0.7724609375
239.31,-0.927734375
239.32,-0.98974609375
239.33,-0.97509765625
239.34,-0.91748046875
239.35,-0.83447265625
239.36,-0.7431640625
239.37,-0.66748046875
239.38,-0.61865234375
239.39,-0.59765625
239.4,-0.60888671875
239.41,-0.65234375
239.42,-0.71142578125
239.43,-0.76318359375
239.44,-0.794921875
239.45,-0.79736328125
239.46,-0.763671875
239.47,-0.68359375
239.479,-0.55517578125
239.489,-0.4033203125
239.499,-0.272705078125
239.509,-0.2099609375
239.519,-0.2283935546875
239.529,-0.299072265625
239.539,-0.39404296875
239.549,-0.5048828125
239.559,-0.6181640625
239.569,-0.708984375
239.579,-0.748046875
239.589,-0.720703125
239.599,-0.64111328125
239.609,-0.52392578125
239.619,-0.380859375
239.629,-0.228271484375
239.639,-0.08343505859375
239.649,0.01953125
239.659,0.0325927734375
239.669,-0.0655517578125
239.673,-0.2379150390625
239.683,-0.2015380859375
239.693,-0.224609375
239.703,-0.27001953125
239.713,-0.314453125
239.723,-0.372314453125
239.733,-0.463623046875
239.743,-0.57421875
239.753,-0.65576171875
239.763,-0.66357421875
239.773,-0.60205078125
239.783,-0.5263671875
239.793,-0.49365234375
239.803,-0.5068359375
239.813,-0.52783203125
239.823,-0.53369140625
239.832,-0.55712890625
239.842,-0.6484375
239.852,-0.8046875
239.862,-0.9541015625
239.872,-1.0107421875
239.882,-0.94970703125
239.892,-0.8212890625
239.902,-0.69677734375
239.912,-0.60791015625
239.922,-0.529296875
239.932,-0.41552734375
239.942,-0.269775390625
239.952,-0.1451416015625
239.962,-0.08465576171875
239.972,-0.09002685546875
239.982,-0.1412353515625
239.992,-0.2215576171875
240.002,-0.330078125
240.012,-0.46826171875
240.022,-0.60791015625
240.03,-0.70263671875
240.04,-0.72802734375
240.05,-0.70703125
240.06,-0.6953125
240.07,-0.72998046875
240.08,-0.78662109375
240.09,-0.80615234375
240.1,-0.76123046875
240.11,-0.6796875
240.12,-0.609375
240.13,-0.5673828125
240.14,-0.541015625
240.15,-0.51123046875
240.16,-0.472412109375
240.17,-0.432373046875
240.18,-0.407470703125
240.19,-0.396240234375
240.2,-0.369873046875
240.21,-0.30859375
240.22,-0.2335205078125
240.229,-0.18896484375
240.239,-0.197021484375
240.249,-0.237548828125
240.259,-0.275390625
240.269,-0.302001953125
240.279,-0.352294921875
240.289,-0.476806640625
240.299,-0.67431640625
240.309,-0.8681640625
240.319,-0.9697265625
240.329,-0.94970703125
240.339,-0.84423828125
240.349,-0.71875
240.359,-0.61474609375
240.369,-0.53271484375
240.379,-0.4501953125
240.389,-0.364013671875
240.399,-0.29833984375
240.409,-0.269775390625
240.419,-0.267822265625
240.424,-0.666015625
240.434,-0.8359375
240.444,-0.94970703125
240.454,-0.95849609375
240.464,-0.876953125
240.474,-0.7666015625
240.484,-0.67919921875
240.494,-0.63037109375
240.504,-0.60595703125
240.514,-0.595703125
240.524,-0.6044921875
240.534,-0.63134765625
240.544,-0.65234375
240.554,-0.64404296875
240.564,-0.599609375
240.574,-0.51953125
240.581,-0.4013671875
240.591,-0.2529296875
240.601,-0.119873046875
240.611,-0.0535888671875
240.621,-0.06097412109375
240.631,-0.11102294921875
240.641,-0.183349609375
240.651,-0.2900390625
240.661,-0.437744140625
240.671,-0.5859375
240.681,-0.67578125
240.691,-0.68505859375
240.701,-0.64208984375
240.711,-0.58935546875
240.721,-0.5361328125
240.731,-0.46435546875
240.741,-0.363525390625
240.751,-0.2568359375
240.761,-0.19775390625
240.771,-0.239990234375
240.78,-0.38134765625
240.79,-0.53955078125
240.8,-0.607421875
240.81,-0.552734375
240.82,-0.4423828125
240.83,-0.354248046875
240.84,-0.300537109375
240.85,-0.24951171875
240.86,-0.1767578125
240.87,-0.09332275390625
240.88,-0.0430908203125
240.89,-0.054443359375
240.9,-0.10430908203125
240.91,-0.1484375
240.92,-0.17041015625
240.93,-0.1885986328125
240.94,-0.2249755859375
240.95,-0.27587890625
240.96,-0.31201171875
240.97,-0.303955078125
240.979,-0.261962890625
240.989,-0.242431640625
240.999,-0.291748046875
241.009,-0.407958984375
241.019,-0.55810546875
241.029,-0.70361328125
241.039,-0.82080078125
241.049,-0.904296875
241.059,-0.94140625
241.069,-0.9033203125
241.079,-0.77001953125
241.089,-0.5654296875
241.099,-0.35595703125
241.109,-0.21435546875
241.119,-0.1861572265625
241.129,-0.260009765625
241.139,-0.36474609375
241.149,-0.421630859375
241.159,-0.40234375
241.169,-0.32470703125
241.174,-0.158935546875
241.184,-0.189453125
241.194,-0.2451171875
241.204,-0.350830078125
241.214,-0.50244140625
241.224,-0.66259765625
241.234,-0.7763671875
241.244,-0.7939453125
241.254,-0.70263671875
241.264,-0.53759765625
241.274,-0.36279296875
241.284,-0.240478515625
241.294,-0.2054443359375
241.304,-0.255859375
241.314,-0.354736328125
241.324,-0.4462890625
241.331,-0.49462890625
241.341,-0.51318359375
241.351,-0.552734375
241.361,-0.642578125
241.371,-0.7509765625
241.381,-0.82421875
241.391,-0.85205078125
241.401,-0.8623046875
241.411,-0.87158203125
241.421,-0.8564453125
241.431,-0.77685546875
241.441,-0.61279296875
241.451,-0.37255859375
241.461,-0.08856201171875
241.471,0.1812744140625
241.481,0.3623046875
241.491,0.393798828125
241.501,0.2548828125
241.511,-0.0343017578125
241.521,-0.416748046875
241.53,-0.8017578125
241.54,-1.1064453125
241.55,-1.2880859375
241.56,-1.322265625
241.57,-1.1845703125
241.58,-0.89990234375
241.59,-0.55859375
241.6,-0.26708984375
241.61,-0.10003662109375
241.62,-0.08447265625
241.63,-0.2008056640625
241.64,-0.3896484375
241.65,-0.5810546875
241.66,-0.7392578125
241.67,-0.87060546875
241.68,-0.99755859375
241.69,-1.1279296875
241.7,-1.2412109375
241.71,-1.2880859375
241.72,-1.2236328125
241.729,-1.0478515625
241.739,-0.8125
241.749,-0.57666015625
241.759,-0.36865234375
241.769,-0.1925048828125
241.779,-0.06109619140625
241.789,-0.00760650634765625
241.799,-0.05780029296875
241.809,-0.1917724609375
241.819,-0.339599609375
241.829,-0.423095703125
241.839,-0.3955078125
241.849,-0.24951171875
241.859,-0.016815185546875
241.869,0.236083984375
241.879,0.43359375
241.889,0.5263671875
241.899,0.505859375
241.909,0.38671875
241.919,0.1800537109375
241.924,-1.10546875
241.934,-1.033203125
241.944,-0.82861328125
241.954,-0.57568359375
241.964,-0.35205078125
241.974,-0.1976318359375
241.984,-0.11663818359375
241.994,-0.08319091796875
242.004,-0.05657958984375
242.014,-0.00994873046875
242.024,0.05169677734375
242.034,0.099853515625
242.044,0.1053466796875
242.054,0.056793212890625
242.064,-0.0361328125
242.074,-0.148681640625
242.081,-0.26171875
242.091,-0.382568359375
242.101,-0.5224609375
242.111,-0.658203125
242.121,-0.74755859375
242.131,-0.75927734375
242.141,-0.68701171875
242.151,-0.5595703125
242.161,-0.432373046875
242.171,-0.34326171875
242.181,-0.295654296875
242.191,-0.284912109375
242.201,-0.323974609375
242.211,-0.439697265625
242.221,-0.6298828125
242.231,-0.8427734375
242.241,-1.0009765625
242.251,-1.0322265625
242.261,-0.9072265625
242.271,-0.6728515625
242.28,-0.4267578125
242.29,-0.24072265625
242.3,-0.128662109375
242.31,-0.06585693359375
242.32,-0.0148391723632812
242.33,0.056915283203125
242.34,0.15576171875
242.35,0.255126953125
242.36,0.307373046875
242.37,0.26611328125
242.38,0.12298583984375
242.39,-0.07562255859375
242.4,-0.259765625
242.41,-0.380615234375
242.42,-0.433837890625
242.43,-0.4501953125
242.44,-0.463623046875
242.45,-0.478515625
242.46,-0.4736328125
242.47,-0.43896484375
242.479,-0.400390625
242.489,-0.406494140625
242.499,-0.5048828125
242.509,-0.70654296875
242.519,-0.95263671875
242.529,-1.1328125
242.539,-1.1611328125
242.549,-1.0302734375
242.559,-0.80517578125
242.569,-0.56005859375
242.579,-0.35595703125
242.589,-0.2352294921875
242.599,-0.2132568359375
242.609,-0.267822265625
242.619,-0.359375
242.629,-0.4697265625
242.639,-0.615234375
242.649,-0.822265625
242.659,-1.083984375
242.669,-1.333984375
242.674,-0.7890625
242.684,-0.6044921875
242.694,-0.470458984375
242.704,-0.36181640625
242.714,-0.250244140625
242.724,-0.13134765625
242.734,-0.032012939453125
242.744,-0.00441360473632812
242.754,-0.0909423828125
242.764,-0.279541015625
242.774,-0.498291015625
242.784,-0.666015625
242.794,-0.7490234375
242.804,-0.755859375
242.814,-0.70263671875
242.824,-0.599609375
242.831,-0.463134765625
242.841,-0.323974609375
242.851,-0.2218017578125
242.861,-0.193115234375
242.871,-0.265869140625
242.881,-0.454345703125
242.891,-0.73046875
242.901,-1.017578125
242.911,-1.2353515625
242.921,-1.337890625
242.931,-1.3115234375
242.941,-1.1650390625
242.951,-0.9072265625
242.961,-0.5771484375
242.971,-0.2548828125
242.981,-0.0234527587890625
242.991,0.06707763671875
243.001,0.00611114501953125
243.011,-0.181884765625
243.021,-0.438720703125
243.03,-0.677734375
243.04,-0.82275390625
243.05,-0.8408203125
243.06,-0.73681640625
243.07,-0.54443359375
243.08,-0.322509765625
243.09,-0.1304931640625
243.1,-0.0163116455078125
243.11,-0.00613784790039062
243.12,-0.10418701171875
243.13,-0.29443359375
243.14,-0.53125
243.15,-0.7587890625
243.16,-0.93505859375
243.17,-1.025390625
243.18,-1.009765625
243.19,-0.89306640625
243.2,-0.70703125
243.21,-0.50439453125
243.22,-0.3369140625
243.229,-0.237548828125
243.239,-0.21435546875
243.249,-0.2529296875
243.259,-0.33154296875
243.269,-0.4248046875
243.279,-0.5048828125
243.289,-0.5498046875
243.299,-0.5419921875
243.309,-0.4814453125
243.319,-0.403564453125
243.329,-0.349853515625
243.339,-0.33154296875
243.349,-0.34375
243.359,-0.386474609375
243.369,-0.46630859375
243.379,-0.58642578125
243.389,-0.73095703125
243.399,-0.86328125
243.409,-0.93798828125
243.419,-0.9189453125
243.424,0.1319580078125
243.434,0.192138671875
243.444,0.1268310546875
243.454,-0.02557373046875
243.464,-0.212158203125
243.474,-0.3818359375
243.484,-0.4892578125
243.494,-0.5185546875
243.504,-0.494140625
243.514,-0.4541015625
243.524,-0.423583984375
243.534,-0.41015625
243.544,-0.419921875
243.554,-0.4443359375
243.564,-0.45751953125
243.574,-0.461181640625
243.581,-0.482421875
243.591,-0.53662109375
243.601,-0.611328125
243.611,-0.67138671875
243.621,-0.68701171875
243.631,-0.64501953125
243.641,-0.5517578125
243.651,-0.42822265625
243.661,-0.308349609375
243.671,-0.2412109375
243.681,-0.260986328125
243.691,-0.365234375
243.701,-0.5361328125
243.711,-0.74462890625
243.721,-0.9443359375
243.731,-1.091796875
243.741,-1.1552734375
243.751,-1.12890625
243.761,-1.0302734375
243.771,-0.87451171875
243.78,-0.68798828125
243.79,-0.517578125
243.8,-0.418212890625
243.81,-0.433837890625
243.82,-0.55908203125
243.83,-0.73193359375
243.84,-0.876953125
243.85,-0.9453125
243.86,-0.93994140625
243.87,-0.89501953125
243.88,-0.8408203125
243.89,-0.7939453125
243.9,-0.74853515625
243.91,-0.697265625
243.92,-0.64013671875
243.93,-0.58251953125
243.94,-0.51708984375
243.95,-0.431396484375
243.96,-0.33349609375
243.97,-0.260986328125
243.979,-0.244873046875
243.989,-0.291748046875
243.999,-0.370849609375
244.009,-0.418701171875
244.019,-0.404296875
244.029,-0.349365234375
244.039,-0.2880859375
244.049,-0.2529296875
244.059,-0.252197265625
244.069,-0.256591796875
244.079,-0.256103515625
244.089,-0.29150390625
244.099,-0.3935546875
244.109,-0.53125
244.119,-0.640625
244.129,-0.68701171875
244.139,-0.6787109375
244.149,-0.63916015625
244.159,-0.591796875
244.169,-0.5654296875
244.174,-0.80078125
244.184,-0.80126953125
244.194,-0.73974609375
244.204,-0.62939453125
244.214,-0.50830078125
244.224,-0.4248046875
244.234,-0.397216796875
244.244,-0.402587890625
244.254,-0.41845703125
244.264,-0.450927734375
244.274,-0.50634765625
244.284,-0.560546875
244.294,-0.57275390625
244.304,-0.5068359375
244.314,-0.36474609375
244.324,-0.1923828125
244.331,-0.049285888671875
244.341,0.0178375244140625
244.351,-0.0108261108398438
244.361,-0.1182861328125
244.371,-0.2802734375
244.381,-0.489990234375
244.391,-0.72607421875
244.401,-0.92822265625
244.411,-1.0224609375
244.421,-0.98388671875
244.431,-0.86865234375
244.441,-0.7548828125
244.451,-0.669921875
244.461,-0.59228515625
244.471,-0.51123046875
244.481,-0.46142578125
244.491,-0.494384765625
244.501,-0.6201171875
244.511,-0.7744140625
244.521,-0.85302734375
244.53,-0.7939453125
244.54,-0.63623046875
244.55,-0.47607421875
244.56,-0.3916015625
244.57,-0.3916015625
244.58,-0.431396484375
244.59,-0.477783203125
244.6,-0.54736328125
244.61,-0.66845703125
244.62,-0.81591796875
244.63,-0.9072265625
244.64,-0.88037109375
244.65,-0.7587890625
244.66,-0.6240234375
244.67,-0.53515625
244.68,-0.488525390625
244.69,-0.450927734375
244.7,-0.4130859375
244.71,-0.3935546875
244.72,-0.418212890625
244.725,-0.498779296875
244.735,-0.433349609375
244.745,-0.40478515625
244.755,-0.402587890625
244.765,-0.403076171875
244.775,-0.39013671875
244.785,-0.379638671875
244.795,-0.394775390625
244.805,-0.4208984375
244.815,-0.427490234375
244.825,-0.418701171875
244.835,-0.4306640625
244.845,-0.498046875
244.855,-0.60986328125
244.865,-0.6943359375
244.875,-0.68408203125
244.882,-0.583984375
244.892,-0.45458984375
244.902,-0.3525390625
244.912,-0.294921875
244.922,-0.269287109375
244.932,-0.26220703125
244.942,-0.274658203125
244.952,-0.3193359375
244.962,-0.391845703125
244.972,-0.462646484375
244.982,-0.50439453125
244.992,-0.5185546875
245.002,-0.541015625
245.012,-0.61767578125
245.022,-0.75048828125
245.032,-0.875
245.042,-0.921875
245.052,-0.8818359375
245.062,-0.79345703125
245.072,-0.70263671875
245.081,-0.6357421875
245.091,-0.57666015625
245.101,-0.481201171875
245.111,-0.326904296875
245.121,-0.1380615234375
245.131,0.034912109375
245.141,0.14111328125
245.151,0.1416015625
245.161,0.02801513671875
245.171,-0.165283203125
245.181,-0.383544921875
245.191,-0.58984375
245.201,-0.7763671875
245.211,-0.94140625
245.221,-1.076171875
245.231,-1.1640625
245.241,-1.1845703125
245.251,-1.1259765625
245.261,-1.0029296875
245.271,-0.85888671875
245.28,-0.74609375
245.29,-0.7099609375
245.3,-0.75732421875
245.31,-0.8525390625
245.32,-0.94482421875
245.33,-0.998046875
245.34,-1.0078125
245.35,-0.99609375
245.36,-0.97998046875
245.37,-0.95458984375
245.38,-0.904296875
245.39,-0.828125
245.4,-0.759765625
245.41,-0.7470703125
245.42,-0.81005859375
245.43,-0.9267578125
245.44,-1.05078125
245.45,-1.1416015625
245.46,-1.181640625
245.47,-1.1845703125
245.475,-0.99951171875
245.485,-1.015625
245.495,-1.0478515625
245.505,-1.078125
245.515,-1.0986328125
245.525,-1.1005859375
245.535,-1.080078125
245.545,-1.041015625
245.555,-1.0009765625
245.565,-0.98193359375
245.575,-0.98095703125
245.585,-0.9755859375
245.595,-0.94873046875
245.605,-0.90283203125
245.615,-0.8544921875
245.625,-0.82666015625
245.632,-0.83642578125
245.642,-0.8837890625
245.652,-0.95166015625
245.662,-1.025390625
245.672,-1.0927734375
245.682,-1.1376953125
245.692,-1.150390625
245.702,-1.13671875
245.712,-1.1064453125
245.722,-1.0615234375
245.732,-1.005859375
245.742,-0.9453125
245.752,-0.8818359375
245.762,-0.82421875
245.772,-0.7900390625
245.782,-0.79345703125
245.792,-0.83740234375
245.802,-0.91259765625
245.812,-0.9931640625
245.822,-1.0478515625
245.831,-1.0576171875
245.841,-1.0126953125
245.851,-0.9228515625
245.861,-0.81103515625
245.871,-0.7021484375
245.881,-0.611328125
245.891,-0.55517578125
245.901,-0.54931640625
245.911,-0.59375
245.921,-0.6806640625
245.931,-0.791015625
245.941,-0.89306640625
245.951,-0.95556640625
245.961,-0.96728515625
245.971,-0.93310546875
245.981,-0.87060546875
245.991,-0.80126953125
246.001,-0.73876953125
246.011,-0.69140625
246.021,-0.66455078125
246.03,-0.6611328125
246.04,-0.68505859375
246.05,-0.732421875
246.06,-0.79052734375
246.07,-0.84375
246.08,-0.8798828125
246.09,-0.8974609375
246.1,-0.904296875
246.11,-0.9072265625
246.12,-0.9130859375
246.13,-0.92919921875
246.14,-0.95263671875
246.15,-0.97265625
246.16,-0.97998046875
246.17,-0.9716796875
246.18,-0.9453125
246.19,-0.8974609375
246.2,-0.8310546875
246.21,-0.7607421875
246.22,-0.7060546875
246.225,-0.83447265625
246.235,-0.8525390625
246.245,-0.8427734375
246.255,-0.8037109375
246.265,-0.7421875
246.275,-0.67333984375
246.285,-0.61181640625
246.295,-0.5673828125
246.305,-0.5478515625
246.315,-0.5546875
246.325,-0.5791015625
246.335,-0.60693359375
246.345,-0.62939453125
246.355,-0.64697265625
246.365,-0.6640625
246.375,-0.68310546875
246.382,-0.70166015625
246.392,-0.712890625
246.402,-0.71337890625
246.412,-0.708984375
246.422,-0.70654296875
246.432,-0.7099609375
246.442,-0.7138671875
246.452,-0.71142578125
246.462,-0.6982421875
246.472,-0.6689453125
246.482,-0.62109375
246.492,-0.56103515625
246.502,-0.4990234375
246.512,-0.44677734375
246.522,-0.411376953125
246.532,-0.39599609375
246.542,-0.39990234375
246.552,-0.423828125
246.562,-0.47265625
246.572,-0.548828125
246.581,-0.64501953125
246.591,-0.7392578125
246.601,-0.79736328125
246.611,-0.7900390625
246.621,-0.71337890625
246.631,-0.5927734375
246.641,-0.46728515625
246.651,-0.37255859375
246.661,-0.32861328125
246.671,-0.33642578125
246.681,-0.380859375
246.691,-0.439697265625
246.701,-0.498779296875
246.711,-0.55712890625
246.721,-0.61279296875
246.731,-0.65771484375
246.741,-0.68603515625
246.751,-0.6982421875
246.761,-0.69287109375
246.771,-0.671875
246.78,-0.638671875
246.79,-0.6005859375
246.8,-0.56640625
246.81,-0.54541015625
246.82,-0.54248046875
246.83,-0.55712890625
246.84,-0.5869140625
246.85,-0.62451171875
246.86,-0.65869140625
246.87,-0.6796875
246.88,-0.68603515625
246.89,-0.6875
246.9,-0.69287109375
246.91,-0.69970703125
246.92,-0.69873046875
246.93,-0.6884765625
246.94,-0.6728515625
246.95,-0.65478515625
246.96,-0.6337890625
246.97,-0.61083984375
246.975,-0.68212890625
246.985,-0.71875
246.995,-0.736328125
247.005,-0.73291015625
247.015,-0.71337890625
247.025,-0.67578125
247.035,-0.634765625
247.045,-0.6142578125
247.055,-0.61865234375
247.065,-0.6328125
247.075,-0.630859375
247.085,-0.5966796875
247.095,-0.54345703125
247.105,-0.493896484375
247.115,-0.45458984375
247.125,-0.422119140625
247.132,-0.389404296875
247.142,-0.3525390625
247.152,-0.319580078125
247.162,-0.30029296875
247.172,-0.285400390625
247.182,-0.251708984375
247.192,-0.186279296875
247.202,-0.0972900390625
247.212,-0.00429153442382812
247.222,0.0755615234375
247.232,0.126708984375
247.242,0.13623046875
247.252,0.106201171875
247.262,0.047393798828125
247.272,-0.034393310546875
247.282,-0.1279296875
247.292,-0.211669921875
247.302,-0.2685546875
247.312,-0.2880859375
247.322,-0.26025390625
247.331,-0.1766357421875
247.341,-0.044952392578125
247.351,0.104736328125
247.361,0.2340087890625
247.371,0.31689453125
247.381,0.34326171875
247.391,0.314453125
247.401,0.243408203125
247.411,0.148681640625
247.421,0.0423583984375
247.431,-0.066162109375
247.441,-0.1605224609375
247.451,-0.219970703125
247.461,-0.2332763671875
247.471,-0.204345703125
247.481,-0.143798828125
247.491,-0.06304931640625
247.501,0.0263519287109375
247.511,0.11199951171875
247.521,0.181396484375
247.53,0.2254638671875
247.54,0.2427978515625
247.55,0.239990234375
247.56,0.228271484375
247.57,0.2135009765625
247.58,0.1949462890625
247.59,0.1690673828125
247.6,0.130126953125
247.61,0.071044921875
247.62,-0.00922393798828125
247.63,-0.101318359375
247.64,-0.1893310546875
247.65,-0.2548828125
247.66,-0.2783203125
247.67,-0.2454833984375
247.68,-0.1572265625
247.69,-0.032012939453125
247.7,0.099365234375
247.71,0.197998046875
247.72,0.22802734375
247.724,-0.435791015625
247.734,-0.50341796875
247.744,-0.486328125
247.754,-0.39990234375
247.764,-0.274658203125
247.774,-0.1414794921875
247.784,-0.0273590087890625
247.794,0.0457763671875
247.804,0.06634521484375
247.814,0.03887939453125
247.824,-0.0169830322265625
247.834,-0.0750732421875
247.844,-0.11383056640625
247.854,-0.12066650390625
247.864,-0.093994140625
247.874,-0.041778564453125
247.882,0.023712158203125
247.892,0.08837890625
247.902,0.1380615234375
247.912,0.162109375
247.922,0.154296875
247.932,0.112548828125
247.942,0.042694091796875
247.952,-0.03192138671875
247.962,-0.079833984375
247.972,-0.0849609375
247.982,-0.052978515625
247.992,0.002593994140625
248.002,0.0706787109375
248.012,0.139404296875
248.022,0.1923828125
248.032,0.2122802734375
248.042,0.18896484375
248.052,0.1260986328125
248.062,0.042938232421875
248.072,-0.034515380859375
248.081,-0.08856201171875
248.091,-0.11798095703125
248.101,-0.1270751953125
248.111,-0.113525390625
248.121,-0.07061767578125
248.131,0.00367546081542969
248.141,0.09820556640625
248.151,0.1910400390625
248.161,0.26025390625
248.171,0.291015625
248.181,0.28076171875
248.191,0.2388916015625
248.201,0.1787109375
248.211,0.11492919921875
248.221,0.060699462890625
248.231,0.0197296142578125
248.241,-0.011962890625
248.251,-0.036102294921875
248.261,-0.05059814453125
248.271,-0.05133056640625
248.28,-0.035186767578125
248.29,-0.00823211669921875
248.3,0.0123748779296875
248.31,0.0117645263671875
248.32,-0.0096588134765625
248.33,-0.041259765625
248.34,-0.07476806640625
248.35,-0.1075439453125
248.36,-0.140625
248.37,-0.17333984375
248.38,-0.1937255859375
248.39,-0.1837158203125
248.4,-0.135009765625
248.41,-0.055938720703125
248.42,0.03411865234375
248.43,0.1151123046875
248.44,0.1729736328125
248.45,0.1995849609375
248.46,0.198486328125
248.47,0.1824951171875
248.474,-0.05523681640625
248.484,-0.1251220703125
248.494,-0.1781005859375
248.504,-0.2060546875
248.514,-0.203369140625
248.524,-0.1669921875
248.534,-0.1041259765625
248.544,-0.029022216796875
248.554,0.043365478515625
248.564,0.090576171875
248.574,0.09063720703125
248.584,0.04547119140625
248.594,-0.0189666748046875
248.604,-0.07879638671875
248.614,-0.1273193359375
248.624,-0.1685791015625
248.632,-0.2073974609375
248.642,-0.2413330078125
248.652,-0.260986328125
248.662,-0.260009765625
248.672,-0.2410888671875
248.682,-0.2130126953125
248.692,-0.1842041015625
248.702,-0.1588134765625
248.712,-0.13818359375
248.722,-0.1243896484375
248.732,-0.1204833984375
248.742,-0.12646484375
248.752,-0.1370849609375
248.762,-0.1461181640625
248.772,-0.1529541015625
248.782,-0.1591796875
248.792,-0.1627197265625
248.802,-0.1602783203125
248.812,-0.1514892578125
248.822,-0.1427001953125
248.831,-0.1490478515625
248.841,-0.181396484375
248.851,-0.227783203125
248.861,-0.265625
248.871,-0.279541015625
248.881,-0.26513671875
248.891,-0.229248046875
248.901,-0.186279296875
248.911,-0.14892578125
248.921,-0.1236572265625
248.931,-0.11492919921875
248.941,-0.1295166015625
248.951,-0.16552734375
248.961,-0.2044677734375
248.971,-0.2239990234375
248.981,-0.217041015625
248.991,-0.193359375
249.001,-0.16796875
249.011,-0.147705078125
249.021,-0.12939453125
249.029,-0.112060546875
249.039,-0.10247802734375
249.049,-0.1044921875
249.059,-0.11431884765625
249.069,-0.1307373046875
249.079,-0.156005859375
249.089,-0.188720703125
249.099,-0.22216796875
249.109,-0.2474365234375
249.119,-0.257080078125
249.129,-0.2496337890625
249.139,-0.222412109375
249.149,-0.1680908203125
249.159,-0.088623046875
249.169,-0.00775909423828125
249.179,0.042388916015625
249.189,0.0423583984375
249.199,-0.00342750549316406
249.209,-0.06756591796875
249.219,-0.1156005859375
249.224,0.0634765625
249.234,0.08892822265625
249.244,0.07049560546875
249.254,0.00660324096679688
249.264,-0.0814208984375
249.274,-0.167724609375
249.284,-0.23876953125
249.294,-0.28759765625
249.304,-0.307861328125
249.314,-0.29541015625
249.324,-0.24853515625
249.334,-0.1646728515625
249.344,-0.048553466796875
249.354,0.0799560546875
249.364,0.1893310546875
249.374,0.250732421875
249.382,0.2491455078125
249.392,0.1846923828125
249.402,0.07574462890625
249.412,-0.04693603515625
249.422,-0.156982421875
249.432,-0.244140625
249.442,-0.30810546875
249.452,-0.3466796875
249.462,-0.351806640625
249.472,-0.317138671875
249.482,-0.248779296875
249.492,-0.1649169921875
249.502,-0.07794189453125
249.512,0.0106735229492188
249.522,0.0904541015625
249.532,0.139404296875
249.542,0.1488037109375
249.552,0.1322021484375
249.562,0.10626220703125
249.572,0.07373046875
249.581,0.0272674560546875
249.591,-0.037139892578125
249.601,-0.111083984375
249.611,-0.181640625
249.621,-0.2454833984375
249.631,-0.30322265625
249.641,-0.344482421875
249.651,-0.347412109375
249.661,-0.293212890625
249.671,-0.1866455078125
249.681,-0.0625
249.691,0.030517578125
249.701,0.06793212890625
249.711,0.06268310546875
249.721,0.034027099609375
249.731,-0.01617431640625
249.741,-0.08624267578125
249.751,-0.156982421875
249.761,-0.2000732421875
249.771,-0.198486328125
249.779,-0.165283203125
249.789,-0.1358642578125
249.799,-0.13427734375
249.809,-0.1566162109375
249.819,-0.187255859375
249.829,-0.2117919921875
249.839,-0.21630859375
249.849,-0.1995849609375
249.859,-0.17578125
249.869,-0.1558837890625
249.879,-0.1385498046875
249.889,-0.11956787109375
249.899,-0.10150146484375
249.909,-0.094970703125
249.919,-0.11029052734375
249.929,-0.1461181640625
249.939,-0.192138671875
249.949,-0.240478515625
249.959,-0.287109375
249.969,-0.323974609375
249.973,-0.20751953125
249.983,-0.1392822265625
249.993,-0.0938720703125
250.003,-0.0982666015625
250.013,-0.1572265625
250.023,-0.24853515625
250.033,-0.33837890625
250.043,-0.40087890625
250.053,-0.426513671875
250.063,-0.419921875
250.073,-0.395263671875
250.083,-0.36865234375
250.093,-0.349365234375
250.103,-0.3359375
250.113,-0.315185546875
250.123,-0.271240234375
250.132,-0.205322265625
250.142,-0.135498046875
250.152,-0.0811767578125
250.162,-0.05877685546875
250.172,-0.07745361328125
250.182,-0.1256103515625
250.192,-0.1763916015625
250.202,-0.2047119140625
250.212,-0.1942138671875
250.222,-0.1419677734375
250.232,-0.060333251953125
250.242,0.027374267578125
250.252,0.09222412109375
250.262,0.107177734375
250.272,0.06158447265625
250.282,-0.034423828125
250.292,-0.1607666015625
250.302,-0.292724609375
250.312,-0.403076171875
250.322,-0.4736328125
250.331,-0.495361328125
250.341,-0.468505859375
250.351,-0.408447265625
250.361,-0.3369140625
250.371,-0.2685546875
250.381,-0.2103271484375
250.391,-0.15966796875
250.401,-0.10247802734375
250.411,-0.02716064453125
250.421,0.058807373046875
250.431,0.133544921875
250.441,0.1707763671875
250.451,0.1510009765625
250.461,0.07562255859375
250.471,-0.03533935546875
250.481,-0.159423828125
250.491,-0.27587890625
250.501,-0.36572265625
250.511,-0.4189453125
250.521,-0.432373046875
250.529,-0.41015625
250.539,-0.3681640625
250.549,-0.3251953125
250.559,-0.297607421875
250.569,-0.299072265625
250.579,-0.3310546875
250.589,-0.380615234375
250.599,-0.4326171875
250.609,-0.474365234375
250.619,-0.493896484375
250.629,-0.488037109375
250.639,-0.46240234375
250.649,-0.42724609375
250.659,-0.39697265625
250.669,-0.391357421875
250.679,-0.42626953125
250.689,-0.50390625
250.699,-0.60400390625
250.709,-0.6904296875
250.719,-0.74169921875
250.723,-0.73193359375
250.733,-0.7724609375
250.743,-0.85986328125
250.753,-0.97802734375
250.763,-1.09765625
250.773,-1.193359375
250.783,-1.244140625
250.793,-1.2392578125
250.803,-1.1806640625
250.813,-1.080078125
250.823,-0.94775390625
250.833,-0.80908203125
250.843,-0.697265625
250.853,-0.6396484375
250.863,-0.64111328125
250.873,-0.69482421875
250.882,-0.791015625
250.892,-0.90380859375
250.902,-0.9931640625
250.912,-1.029296875
250.922,-1.0068359375
250.932,-0.9345703125
250.942,-0.83935546875
250.952,-0.76318359375
250.962,-0.734375
250.972,-0.7548828125
250.982,-0.8115234375
250.992,-0.88671875
251.002,-0.95849609375
251.012,-1.0146484375
251.022,-1.0546875
251.032,-1.0771484375
251.042,-1.072265625
251.052,-1.0419921875
251.062,-0.99365234375
251.072,-0.935546875
251.081,-0.87744140625
251.091,-0.83203125
251.101,-0.80419921875
251.111,-0.791015625
251.121,-0.79052734375
251.131,-0.80224609375
251.141,-0.82080078125
251.151,-0.83837890625
251.161,-0.85498046875
251.171,-0.8740234375
251.181,-0.89794921875
251.191,-0.92919921875
251.201,-0.9658203125
251.211,-1.0009765625
251.221,-1.033203125
251.231,-1.060546875
251.241,-1.080078125
251.251,-1.087890625
251.261,-1.0771484375
251.271,-1.0458984375
251.279,-1.001953125
251.289,-0.95703125
251.299,-0.92138671875
251.309,-0.89697265625
251.319,-0.88427734375
251.329,-0.88330078125
251.339,-0.89208984375
251.349,-0.90380859375
251.359,-0.9072265625
251.369,-0.89111328125
251.379,-0.85595703125
251.389,-0.81494140625
251.399,-0.77734375
251.409,-0.74560546875
251.419,-0.72265625
251.429,-0.7158203125
251.439,-0.728515625
251.449,-0.7548828125
251.459,-0.78759765625
251.469,-0.818359375
251.473,-0.86767578125
251.483,-0.884765625
251.493,-0.90234375
251.503,-0.90673828125
251.513,-0.884765625
251.523,-0.83447265625
251.533,-0.76708984375
251.543,-0.69677734375
251.553,-0.63818359375
251.563,-0.60498046875
251.573,-0.6015625
251.583,-0.6181640625
251.593,-0.6484375
251.603,-0.6865234375
251.613,-0.72265625
251.623,-0.74560546875
251.632,-0.7509765625
251.642,-0.73681640625
251.652,-0.7001953125
251.662,-0.646484375
251.672,-0.58984375
251.682,-0.546875
251.692,-0.5302734375
251.702,-0.5458984375
251.712,-0.59130859375
251.722,-0.65283203125
251.732,-0.7109375
251.742,-0.74658203125
251.752,-0.7509765625
251.762,-0.72412109375
251.772,-0.67236328125
251.782,-0.6025390625
251.792,-0.5263671875
251.802,-0.46142578125
251.812,-0.4189453125
251.822,-0.406494140625
251.831,-0.428466796875
251.841,-0.48095703125
251.851,-0.54931640625
251.861,-0.6171875
251.871,-0.66650390625
251.881,-0.6787109375
251.891,-0.6435546875
251.901,-0.57080078125
251.911,-0.48583984375
251.921,-0.420166015625
251.931,-0.38916015625
251.941,-0.385009765625
251.951,-0.39794921875
251.961,-0.419189453125
251.971,-0.42578125
251.981,-0.40087890625
251.991,-0.3515625
252.001,-0.29296875
252.011,-0.23193359375
252.021,-0.1630859375
252.029,-0.08282470703125
252.039,-0.000420808792114258
252.049,0.06561279296875
252.059,0.09576416015625
252.069,0.0762939453125
252.079,0.0070953369140625
252.089,-0.09222412109375
252.099,-0.186767578125
252.109,-0.2432861328125
252.119,-0.248046875
252.129,-0.20947265625
252.139,-0.1500244140625
252.149,-0.094482421875
252.159,-0.056243896484375
252.169,-0.029998779296875
252.179,-0.00633621215820312
252.189,0.0144119262695312
252.199,0.034637451171875
252.209,0.064697265625
252.219,0.1072998046875
252.224,0.036376953125
252.234,-0.059539794921875
252.244,-0.1395263671875
252.254,-0.18603515625
252.264,-0.1939697265625
252.274,-0.1748046875
252.284,-0.1485595703125
252.294,-0.12841796875
252.304,-0.1168212890625
252.314,-0.11212158203125
252.324,-0.11285400390625
252.334,-0.11669921875
252.344,-0.1170654296875
252.354,-0.10394287109375
252.364,-0.06951904296875
252.374,-0.0127105712890625
252.382,0.059112548828125
252.392,0.1314697265625
252.402,0.1893310546875
252.412,0.2203369140625
252.422,0.212646484375
252.432,0.154541015625
252.442,0.043548583984375
252.452,-0.11224365234375
252.462,-0.295654296875
252.472,-0.464599609375
252.482,-0.55712890625
252.492,-0.5439453125
252.502,-0.447998046875
252.512,-0.3076171875
252.522,-0.1531982421875
252.532,-0.0084075927734375
252.542,0.110595703125
252.552,0.192138671875
252.562,0.2259521484375
252.572,0.2208251953125
252.581,0.2066650390625
252.591,0.196533203125
252.601,0.17724609375
252.611,0.13330078125
252.621,0.0557861328125
252.631,-0.0526123046875
252.641,-0.1759033203125
252.651,-0.296142578125
252.661,-0.3935546875
252.671,-0.45068359375
252.681,-0.466552734375
252.691,-0.439208984375
252.701,-0.361572265625
252.711,-0.24072265625
252.721,-0.10235595703125
252.731,0.02447509765625
252.741,0.12054443359375
252.751,0.179931640625
252.761,0.20361328125
252.771,0.19287109375
252.779,0.15283203125
252.789,0.08984375
252.799,0.0096435546875
252.809,-0.079345703125
252.819,-0.169921875
252.829,-0.25927734375
252.839,-0.342041015625
252.849,-0.40771484375
252.859,-0.45556640625
252.869,-0.49267578125
252.879,-0.5185546875
252.889,-0.52587890625
252.899,-0.5087890625
252.909,-0.46630859375
252.919,-0.404541015625
252.929,-0.330810546875
252.939,-0.246826171875
252.949,-0.1468505859375
252.959,-0.0272369384765625
252.969,0.09747314453125
252.973,0.11322021484375
252.983,9.10758972167969e-05
252.993,-0.1268310546875
253.003,-0.2440185546875
253.013,-0.328369140625
253.023,-0.363037109375
253.033,-0.3388671875
253.043,-0.26416015625
253.053,-0.1654052734375
253.063,-0.0655517578125
253.073,0.0269622802734375
253.083,0.10101318359375
253.093,0.14208984375
253.103,0.1422119140625
253.113,0.1090087890625
253.123,0.06927490234375
253.132,0.04925537109375
253.142,0.053619384765625
253.152,0.072265625
253.162,0.09161376953125
253.172,0.104736328125
253.182,0.1141357421875
253.192,0.1181640625
253.202,0.10955810546875
253.212,0.08428955078125
253.222,0.040863037109375
253.232,-0.0178985595703125
253.242,-0.08203125
253.252,-0.142578125
253.262,-0.1905517578125
253.272,-0.2100830078125
253.282,-0.1883544921875
253.292,-0.1240234375
253.302,-0.0245361328125
253.312,0.09283447265625
253.322,0.1973876953125
253.33,0.25244140625
253.34,0.2388916015625
253.35,0.1689453125
253.36,0.07086181640625
253.37,-0.031585693359375
253.38,-0.11810302734375
253.39,-0.173828125
253.4,-0.19970703125
253.41,-0.201904296875
253.42,-0.1815185546875
253.43,-0.145751953125
253.44,-0.10614013671875
253.45,-0.06646728515625
253.46,-0.0313720703125
253.47,-0.0105743408203125
253.48,-0.0117874145507812
253.49,-0.04132080078125
253.5,-0.099853515625
253.51,-0.1729736328125
253.52,-0.2384033203125
253.529,-0.274658203125
253.539,-0.263671875
253.549,-0.202880859375
253.559,-0.11065673828125
253.569,-0.0139923095703125
253.579,0.0625
253.589,0.09649658203125
253.599,0.078125
253.609,0.019805908203125
253.619,-0.0548095703125
253.629,-0.12408447265625
253.639,-0.162841796875
253.649,-0.1622314453125
253.659,-0.1676025390625
253.669,-0.2412109375
253.679,-0.39697265625
253.689,-0.5927734375
253.699,-0.74658203125
253.709,-0.77099609375
253.719,-0.6279296875
253.723,0.0285491943359375
253.733,-0.1875
253.743,-0.39306640625
253.753,-0.5087890625
253.763,-0.53466796875
253.773,-0.5322265625
253.783,-0.58154296875
253.793,-0.7412109375
253.803,-0.9853515625
253.813,-1.2158203125
253.823,-1.3525390625
253.833,-1.376953125
253.843,-1.3076171875
253.853,-1.1748046875
253.863,-0.9951171875
253.873,-0.73828125
253.882,-0.3681640625
253.892,0.0638427734375
253.902,0.43603515625
253.912,0.6591796875
253.922,0.7216796875
253.932,0.66650390625
253.942,0.54736328125
253.952,0.39599609375
253.962,0.218017578125
253.972,0.009368896484375
253.982,-0.221435546875
253.992,-0.44384765625
254.002,-0.61865234375
254.012,-0.716796875
254.022,-0.72509765625
254.032,-0.650390625
254.042,-0.51123046875
254.052,-0.32470703125
254.062,-0.11810302734375
254.072,0.043792724609375
254.08,0.0816650390625
254.09,-0.039276123046875
254.1,-0.277099609375
254.11,-0.51123046875
254.12,-0.609375
254.13,-0.53173828125
254.14,-0.345703125
254.15,-0.1552734375
254.16,-0.0379638671875
254.17,-0.0188446044921875
254.18,-0.0743408203125
254.19,-0.150390625
254.2,-0.1881103515625
254.21,-0.1531982421875
254.22,-0.0537109375
254.23,0.06591796875
254.24,0.1527099609375
254.25,0.18017578125
254.26,0.16064453125
254.27,0.1268310546875
254.279,0.09893798828125
254.289,0.0684814453125
254.299,0.0119400024414062
254.309,-0.08013916015625
254.319,-0.1885986328125
254.329,-0.281494140625
254.339,-0.33642578125
254.349,-0.3466796875
254.359,-0.321533203125
254.369,-0.279296875
254.379,-0.2320556640625
254.389,-0.1802978515625
254.399,-0.12255859375
254.409,-0.0640869140625
254.419,-0.0191497802734375
254.429,-0.00476837158203125
254.439,-0.0244598388671875
254.449,-0.0606689453125
254.459,-0.09375
254.469,-0.11865234375
254.473,-0.153076171875
254.483,-0.12200927734375
254.493,-0.09124755859375
254.503,-0.07586669921875
254.513,-0.08941650390625
254.523,-0.1314697265625
254.533,-0.1827392578125
254.543,-0.2252197265625
254.553,-0.252685546875
254.563,-0.264404296875
254.573,-0.267333984375
254.583,-0.2744140625
254.593,-0.287353515625
254.603,-0.2978515625
254.613,-0.297607421875
254.623,-0.28125
254.632,-0.2493896484375
254.642,-0.2137451171875
254.652,-0.190185546875
254.662,-0.1845703125
254.672,-0.1939697265625
254.682,-0.2099609375
254.692,-0.2203369140625
254.702,-0.2186279296875
254.712,-0.2059326171875
254.722,-0.18408203125
254.732,-0.1619873046875
254.742,-0.1531982421875
254.752,-0.1619873046875
254.762,-0.1834716796875
254.772,-0.21044921875
254.782,-0.233154296875
254.792,-0.24755859375
254.802,-0.25732421875
254.812,-0.2646484375
254.822,-0.2685546875
254.83,-0.270263671875
254.84,-0.270263671875
254.85,-0.26953125
254.86,-0.268798828125
254.87,-0.263427734375
254.88,-0.2471923828125
254.89,-0.219970703125
254.9,-0.18701171875
254.91,-0.1546630859375
254.92,-0.1328125
254.93,-0.129150390625
254.94,-0.1419677734375
254.95,-0.16650390625
254.96,-0.20068359375
254.97,-0.2421875
254.98,-0.28857421875
254.99,-0.338134765625
255,-0.383544921875
255.01,-0.41162109375
255.02,-0.413330078125
255.029,-0.3828125
255.039,-0.321044921875
255.049,-0.2401123046875
255.059,-0.1539306640625
255.069,-0.07586669921875
255.079,-0.020965576171875
255.089,0.00302696228027344
255.099,-0.00364875793457031
255.109,-0.038726806640625
255.119,-0.09417724609375
255.129,-0.1578369140625
255.139,-0.2218017578125
255.149,-0.280029296875
255.159,-0.32958984375
255.169,-0.37353515625
255.179,-0.414306640625
255.189,-0.4462890625
255.199,-0.4677734375
255.209,-0.478515625
255.219,-0.476318359375
255.224,-0.2474365234375
255.234,-0.1771240234375
255.244,-0.11260986328125
255.254,-0.071044921875
255.264,-0.06561279296875
255.274,-0.1014404296875
255.284,-0.171875
255.294,-0.260498046875
255.304,-0.3544921875
255.314,-0.447021484375
255.324,-0.52880859375
255.334,-0.58984375
255.344,-0.62158203125
255.354,-0.62060546875
255.364,-0.591796875
255.374,-0.544921875
255.382,-0.487060546875
255.392,-0.419677734375
255.402,-0.34375
255.412,-0.26123046875
255.422,-0.1746826171875
255.432,-0.085693359375
255.442,0.00310516357421875
255.452,0.09307861328125
255.462,0.185546875
255.472,0.26953125
255.482,0.326904296875
255.492,0.34423828125
255.502,0.320068359375
255.512,0.26318359375
255.522,0.190185546875
255.532,0.1219482421875
255.542,0.07879638671875
255.552,0.07183837890625
255.562,0.09881591796875
255.572,0.1480712890625
255.58,0.2012939453125
255.59,0.240478515625
255.6,0.2587890625
255.61,0.256103515625
255.62,0.2337646484375
255.63,0.1949462890625
255.64,0.1456298828125
255.65,0.09375
255.66,0.05364990234375
255.67,0.03802490234375
255.68,0.049560546875
255.69,0.0804443359375
255.7,0.1143798828125
255.71,0.134033203125
255.72,0.126953125
255.73,0.08795166015625
255.74,0.02447509765625
255.75,-0.052032470703125
255.76,-0.1397705078125
255.77,-0.236572265625
255.779,-0.33251953125
255.789,-0.420166015625
255.799,-0.487060546875
255.809,-0.51806640625
255.819,-0.51416015625
255.829,-0.486572265625
255.839,-0.45068359375
255.849,-0.42431640625
255.859,-0.418701171875
255.869,-0.431640625
255.879,-0.452880859375
255.889,-0.465576171875
255.899,-0.453125
255.909,-0.404541015625
255.919,-0.31201171875
255.929,-0.1795654296875
255.939,-0.0272216796875
255.949,0.115966796875
255.959,0.217041015625
255.969,0.2490234375
255.973,-0.57568359375
255.983,-0.8193359375
255.993,-1.048828125
256.003,-1.2470703125
256.013,-1.384765625
256.023,-1.4404296875
256.033,-1.4208984375
256.043,-1.3505859375
256.053,-1.26171875
256.063,-1.1923828125
256.073,-1.1640625
256.083,-1.166015625
256.093,-1.166015625
256.103,-1.1318359375
256.113,-1.0390625
256.123,-0.87255859375
256.132,-0.62646484375
256.142,-0.31591796875
256.152,0.0177459716796875
256.162,0.31640625
256.172,0.5283203125
256.182,0.6240234375
256.192,0.59130859375
256.202,0.433837890625
256.212,0.186767578125
256.222,-0.06597900390625
256.232,-0.2255859375
256.242,-0.261962890625
256.252,-0.25830078125
256.262,-0.349365234375
256.272,-0.615234375
256.282,-1.0341796875
256.292,-1.509765625
256.302,-1.9208984375
256.312,-2.14453125
256.322,-2.09375
256.33,-1.7607421875
256.34,-1.22265625
256.35,-0.607421875
256.36,-0.057525634765625
256.37,0.304931640625
256.38,0.423095703125
256.39,0.320556640625
256.4,0.062408447265625
256.41,-0.277587890625
256.42,-0.61962890625
256.43,-0.890625
256.44,-1.052734375
256.45,-1.1123046875
256.46,-1.0986328125
256.47,-1.0517578125
256.48,-1.00390625
256.49,-0.97705078125
256.5,-0.97509765625
256.51,-0.9921875
256.52,-1.01953125
256.529,-1.052734375
256.539,-1.0849609375
256.549,-1.1162109375
256.559,-1.1513671875
256.569,-1.1884765625
256.579,-1.21875
256.589,-1.2314453125
256.599,-1.22265625
256.609,-1.19140625
256.619,-1.1474609375
256.629,-1.107421875
256.639,-1.0859375
256.649,-1.09375
256.659,-1.134765625
256.669,-1.1943359375
256.679,-1.24609375
256.689,-1.267578125
256.699,-1.2490234375
256.709,-1.1865234375
256.719,-1.103515625
256.723,-0.95947265625
256.733,-1.078125
256.743,-1.2666015625
256.753,-1.447265625
256.763,-1.5576171875
256.773,-1.58203125
256.783,-1.53515625
256.793,-1.435546875
256.803,-1.3037109375
256.813,-1.1572265625
256.823,-1.021484375
256.833,-0.9189453125
256.843,-0.8662109375
256.853,-0.86328125
256.863,-0.8974609375
256.873,-0.94287109375
256.882,-0.96630859375
256.892,-0.955078125
256.902,-0.91845703125
256.912,-0.86767578125
256.922,-0.8154296875
256.932,-0.7734375
256.942,-0.74609375
256.952,-0.73779296875
256.962,-0.7548828125
256.972,-0.80029296875
256.982,-0.87646484375
256.992,-0.96728515625
257.002,-1.0419921875
257.012,-1.0849609375
257.022,-1.08984375
257.032,-1.056640625
257.042,-0.99658203125
257.052,-0.9228515625
257.062,-0.84521484375
257.072,-0.7822265625
257.08,-0.75537109375
257.09,-0.76171875
257.1,-0.78564453125
257.11,-0.82275390625
257.12,-0.8720703125
257.13,-0.91796875
257.14,-0.94677734375
257.15,-0.96240234375
257.16,-0.96337890625
257.17,-0.943359375
257.18,-0.9150390625
257.19,-0.8935546875
257.2,-0.873046875
257.21,-0.84912109375
257.22,-0.83837890625
257.23,-0.84716796875
257.24,-0.85791015625
257.25,-0.86181640625
257.26,-0.8779296875
257.27,-0.9130859375
257.279,-0.93798828125
257.289,-0.92431640625
257.299,-0.89697265625
257.309,-0.90771484375
257.319,-0.96630859375
257.329,-1.0224609375
257.339,-1.017578125
257.349,-0.94775390625
257.359,-0.87255859375
257.369,-0.86083984375
257.379,-0.92822265625
257.389,-1.0263671875
257.399,-1.080078125
257.409,-1.037109375
257.419,-0.90087890625
257.429,-0.705078125
257.439,-0.479248046875
257.449,-0.2347412109375
257.459,0.0209808349609375
257.469,0.261474609375
257.473,-0.56494140625
257.483,-1.0830078125
257.493,-1.5283203125
257.503,-1.802734375
257.513,-1.853515625
257.523,-1.7041015625
257.533,-1.4580078125
257.543,-1.2197265625
257.553,-1.03125
257.563,-0.8671875
257.573,-0.6875
257.583,-0.5009765625
257.593,-0.358642578125
257.603,-0.301513671875
257.613,-0.3173828125
257.623,-0.347412109375
257.632,-0.333251953125
257.642,-0.2646484375
257.652,-0.183349609375
257.662,-0.1473388671875
257.672,-0.1912841796875
257.682,-0.302490234375
257.692,-0.421875
257.702,-0.490966796875
257.712,-0.50341796875
257.722,-0.50048828125
257.732,-0.51904296875
257.742,-0.54638671875
257.752,-0.52978515625
257.762,-0.427978515625
257.772,-0.25927734375
257.782,-0.08660888671875
257.792,0.0247802734375
257.802,0.036834716796875
257.812,-0.047119140625
257.822,-0.1829833984375
257.83,-0.304931640625
257.84,-0.362548828125
257.85,-0.355712890625
257.86,-0.332763671875
257.87,-0.3388671875
257.88,-0.37158203125
257.89,-0.3916015625
257.9,-0.373779296875
257.91,-0.327880859375
257.92,-0.27880859375
257.93,-0.2469482421875
257.94,-0.23828125
257.95,-0.2412109375
257.96,-0.24560546875
257.97,-0.2607421875
257.98,-0.28857421875
257.99,-0.30078125
258,-0.259033203125
258.01,-0.1456298828125
258.02,0.01495361328125
258.029,0.1622314453125
258.039,0.2373046875
258.049,0.210693359375
258.059,0.08892822265625
258.069,-0.08721923828125
258.079,-0.259765625
258.089,-0.3779296875
258.099,-0.411865234375
258.109,-0.363037109375
258.119,-0.264892578125
258.129,-0.1571044921875
258.139,-0.06256103515625
258.149,0.0107421875
258.159,0.052825927734375
258.169,0.04547119140625
258.179,-0.0173492431640625
258.189,-0.1080322265625
258.199,-0.1795654296875
258.209,-0.19970703125
258.219,-0.1656494140625
258.224,0.041748046875
258.234,-0.038787841796875
258.244,-0.1263427734375
258.254,-0.1690673828125
258.264,-0.149169921875
258.274,-0.093994140625
258.284,-0.038970947265625
258.294,0.00506591796875
258.304,0.04620361328125
258.314,0.088623046875
258.324,0.11920166015625
258.334,0.116943359375
258.344,0.07904052734375
258.354,0.025726318359375
258.364,-0.025634765625
258.374,-0.07440185546875
258.381,-0.1287841796875
258.391,-0.1956787109375
258.401,-0.265625
258.411,-0.309814453125
258.421,-0.305419921875
258.431,-0.254638671875
258.441,-0.178466796875
258.451,-0.10504150390625
258.461,-0.050323486328125
258.471,-0.00473403930664062
258.481,0.054290771484375
258.491,0.1348876953125
258.501,0.2144775390625
258.511,0.2459716796875
258.521,0.189453125
258.531,0.04449462890625
258.541,-0.144775390625
258.551,-0.3125
258.561,-0.40087890625
258.571,-0.3857421875
258.58,-0.285888671875
258.59,-0.1475830078125
258.6,-0.017913818359375
258.61,0.0736083984375
258.62,0.11749267578125
258.63,0.11822509765625
258.64,0.08624267578125
258.65,0.0343017578125
258.66,-0.0251617431640625
258.67,-0.08477783203125
258.68,-0.14013671875
258.69,-0.17822265625
258.7,-0.1783447265625
258.71,-0.1329345703125
258.72,-0.06402587890625
258.73,-0.00798797607421875
258.74,0.0157012939453125
258.75,0.01788330078125
258.76,0.0208740234375
258.77,0.032012939453125
258.779,0.04388427734375
258.789,0.052947998046875
258.799,0.06195068359375
258.809,0.068359375
258.819,0.06976318359375
258.829,0.07073974609375
258.839,0.0693359375
258.849,0.050872802734375
258.859,0.0109481811523438
258.869,-0.0259552001953125
258.879,-0.030517578125
258.889,6.79492950439453e-05
258.899,0.050140380859375
258.909,0.107177734375
258.919,0.1588134765625
258.929,0.1856689453125
258.939,0.1724853515625
258.949,0.1212158203125
258.959,0.04705810546875
258.969,-0.0274658203125
258.973,0.1064453125
258.983,0.1915283203125
258.993,0.2401123046875
259.003,0.251708984375
259.013,0.2342529296875
259.023,0.1956787109375
259.033,0.1531982421875
259.043,0.12237548828125
259.053,0.09912109375
259.063,0.0726318359375
259.073,0.0404052734375
259.083,0.00303840637207031
259.093,-0.033416748046875
259.103,-0.052520751953125
259.113,-0.044921875
259.123,-0.0195770263671875
259.131,0.0138320922851562
259.141,0.05291748046875
259.151,0.08984375
259.161,0.11273193359375
259.171,0.11578369140625
259.181,0.095703125
259.191,0.055908203125
259.201,0.014892578125
259.211,-0.0116043090820312
259.221,-0.0227508544921875
259.231,-0.0156707763671875
259.241,0.0120773315429688
259.251,0.04962158203125
259.261,0.083984375
259.271,0.103271484375
259.281,0.0946044921875
259.291,0.062347412109375
259.301,0.0236968994140625
259.311,-0.0122909545898438
259.321,-0.04156494140625
259.33,-0.06005859375
259.34,-0.06549072265625
259.35,-0.0555419921875
259.36,-0.03369140625
259.37,-0.00457000732421875
259.38,0.035064697265625
259.39,0.08245849609375
259.4,0.1260986328125
259.41,0.1561279296875
259.42,0.1634521484375
259.43,0.14794921875
259.44,0.11968994140625
259.45,0.08709716796875
259.46,0.058135986328125
259.47,0.038848876953125
259.48,0.030059814453125
259.49,0.02783203125
259.5,0.0234527587890625
259.51,0.0114212036132812
259.52,-0.00897216796875
259.529,-0.035369873046875
259.539,-0.059417724609375
259.549,-0.07269287109375
259.559,-0.0677490234375
259.569,-0.039215087890625
259.579,0.0121688842773438
259.589,0.08428955078125
259.599,0.1717529296875
259.609,0.25927734375
259.619,0.323974609375
259.629,0.34521484375
259.639,0.314453125
259.649,0.2340087890625
259.659,0.12158203125
259.669,0.00751876831054688
259.679,-0.0780029296875
259.689,-0.11456298828125
259.699,-0.09771728515625
259.709,-0.0379638671875
259.719,0.04718017578125
259.723,0.18505859375
259.733,0.111572265625
259.743,0.027587890625
259.753,-0.0390625
259.763,-0.06256103515625
259.773,-0.033966064453125
259.783,0.03741455078125
259.793,0.133544921875
259.803,0.232666015625
259.813,0.30712890625
259.823,0.330078125
259.833,0.292236328125
259.843,0.2042236328125
259.853,0.08697509765625
259.863,-0.034759521484375
259.873,-0.132080078125
259.881,-0.1826171875
259.891,-0.1810302734375
259.901,-0.1373291015625
259.911,-0.0670166015625
259.921,0.0130538940429688
259.931,0.0853271484375
259.941,0.1365966796875
259.951,0.1636962890625
259.961,0.1717529296875
259.971,0.1649169921875
259.981,0.1409912109375
259.991,0.099609375
260.001,0.048797607421875
260.011,0.000441789627075195
260.021,-0.038818359375
260.031,-0.0653076171875
260.041,-0.075927734375
260.051,-0.07440185546875
260.061,-0.070068359375
260.071,-0.06341552734375
260.08,-0.0439453125
260.09,-0.00713729858398438
260.1,0.0391845703125
260.11,0.08856201171875
260.12,0.142578125
260.13,0.1993408203125
260.14,0.247314453125
260.15,0.27099609375
260.16,0.26025390625
260.17,0.2100830078125
260.18,0.12359619140625
260.19,0.014862060546875
260.2,-0.091796875
260.21,-0.17333984375
260.22,-0.21630859375
260.23,-0.2137451171875
260.24,-0.16552734375
260.25,-0.08343505859375
260.26,0.0095977783203125
260.27,0.09161376953125
260.279,0.14599609375
260.289,0.163818359375
260.299,0.150146484375
260.309,0.12139892578125
260.319,0.09039306640625
260.329,0.057373046875
260.339,0.019317626953125
260.349,-0.01824951171875
260.359,-0.0450439453125
260.369,-0.055145263671875
260.379,-0.051666259765625
260.389,-0.039947509765625
260.399,-0.0203704833984375
260.409,0.0072784423828125
260.419,0.040313720703125
260.429,0.07049560546875
260.439,0.0867919921875
260.449,0.084716796875
260.459,0.06597900390625
260.469,0.03289794921875
260.473,-0.11944580078125
260.483,-0.07415771484375
260.493,-0.015899658203125
260.503,0.036895751953125
260.513,0.07373046875
260.523,0.08746337890625
260.533,0.07342529296875
260.543,0.033203125
260.553,-0.024444580078125
260.563,-0.08172607421875
260.573,-0.1180419921875
260.583,-0.12347412109375
260.593,-0.1009521484375
260.603,-0.06427001953125
260.613,-0.0307464599609375
260.623,-0.00817108154296875
260.631,0.00221061706542969
260.641,-0.00238037109375
260.651,-0.0209503173828125
260.661,-0.05029296875
260.671,-0.08892822265625
260.681,-0.127685546875
260.691,-0.154541015625
260.701,-0.16943359375
260.711,-0.177490234375
260.721,-0.1785888671875
260.731,-0.1739501953125
260.741,-0.1644287109375
260.751,-0.14306640625
260.761,-0.10626220703125
260.771,-0.060089111328125
260.781,-0.0118484497070312
260.791,0.029815673828125
260.801,0.052337646484375
260.811,0.050933837890625
260.821,0.031951904296875
260.83,-0.00217056274414062
260.84,-0.0577392578125
260.85,-0.1328125
260.86,-0.20849609375
260.87,-0.259521484375
260.88,-0.264404296875
260.89,-0.2078857421875
260.9,-0.10260009765625
260.91,0.0046234130859375
260.92,0.06402587890625
260.93,0.055816650390625
260.94,-0.00826263427734375
260.95,-0.09942626953125
260.96,-0.1890869140625
260.97,-0.261474609375
260.98,-0.314697265625
260.99,-0.35400390625
261,-0.386962890625
261.01,-0.415771484375
261.02,-0.43115234375
261.029,-0.41650390625
261.039,-0.364990234375
261.049,-0.2822265625
261.059,-0.18212890625
261.069,-0.0845947265625
261.079,-0.01116943359375
261.089,0.0255126953125
261.099,0.022796630859375
261.109,-0.0148773193359375
261.119,-0.0706787109375
261.129,-0.1171875
261.139,-0.1358642578125
261.149,-0.1304931640625
261.159,-0.12261962890625
261.169,-0.13623046875
261.179,-0.180908203125
261.189,-0.2459716796875
261.199,-0.311279296875
261.209,-0.361083984375
261.219,-0.384765625
261.224,-0.27392578125
261.234,-0.1929931640625
261.244,-0.09759521484375
261.254,-0.0130462646484375
261.264,0.037994384765625
261.274,0.038177490234375
261.284,-0.0238037109375
261.294,-0.143798828125
261.304,-0.296630859375
261.314,-0.446044921875
261.324,-0.55859375
261.334,-0.61474609375
261.344,-0.61376953125
261.354,-0.57666015625
261.364,-0.5263671875
261.374,-0.468994140625
261.381,-0.404296875
261.391,-0.33544921875
261.401,-0.264404296875
261.411,-0.193115234375
261.421,-0.1231689453125
261.431,-0.05126953125
261.441,0.0251617431640625
261.451,0.09228515625
261.461,0.1241455078125
261.471,0.10601806640625
261.481,0.04388427734375
261.491,-0.038238525390625
261.501,-0.10693359375
261.511,-0.139404296875
261.521,-0.1357421875
261.531,-0.1124267578125
261.541,-0.0931396484375
261.551,-0.100341796875
261.561,-0.1444091796875
261.571,-0.22119140625
261.58,-0.314208984375
261.59,-0.397216796875
261.6,-0.447265625
261.61,-0.454345703125
261.62,-0.42041015625
261.63,-0.3544921875
261.64,-0.2705078125
261.65,-0.1844482421875
261.66,-0.107421875
261.67,-0.050018310546875
261.68,-0.024322509765625
261.69,-0.038421630859375
261.7,-0.0899658203125
261.71,-0.167236328125
261.72,-0.253662109375
261.73,-0.331298828125
261.74,-0.3798828125
261.75,-0.37890625
261.76,-0.318359375
261.77,-0.20849609375
261.779,-0.07574462890625
261.789,0.04803466796875
261.799,0.12939453125
261.809,0.1375732421875
261.819,0.059356689453125
261.829,-0.09228515625
261.839,-0.285888671875
261.849,-0.486572265625
261.859,-0.66748046875
261.869,-0.8134765625
261.879,-0.91357421875
261.889,-0.955078125
261.899,-0.92822265625
261.909,-0.82861328125
261.919,-0.66357421875
261.929,-0.461181640625
261.939,-0.2666015625
261.949,-0.12060546875
261.959,-0.041046142578125
261.969,-0.0223846435546875
261.973,-0.20361328125
261.983,-0.2037353515625
261.993,-0.1951904296875
262.003,-0.1798095703125
262.013,-0.154296875
262.023,-0.12249755859375
262.033,-0.09698486328125
262.043,-0.0941162109375
262.053,-0.1259765625
262.063,-0.1951904296875
262.073,-0.298583984375
262.083,-0.427001953125
262.093,-0.55908203125
262.103,-0.6708984375
262.113,-0.7529296875
262.123,-0.8134765625
262.131,-0.86328125
262.141,-0.904296875
262.151,-0.93212890625
262.161,-0.9384765625
262.171,-0.92626953125
262.181,-0.91162109375
262.191,-0.90966796875
262.201,-0.9208984375
262.211,-0.93359375
262.221,-0.93505859375
262.231,-0.91552734375
262.241,-0.880859375
262.251,-0.841796875
262.261,-0.80712890625
262.271,-0.783203125
262.281,-0.77392578125
262.291,-0.77294921875
262.301,-0.77392578125
262.311,-0.7763671875
262.321,-0.77783203125
262.33,-0.77099609375
262.34,-0.75634765625
262.35,-0.7431640625
262.36,-0.74072265625
262.37,-0.75341796875
262.38,-0.77783203125
262.39,-0.8076171875
262.4,-0.837890625
262.41,-0.85791015625
262.42,-0.8623046875
262.43,-0.85595703125
262.44,-0.841796875
262.45,-0.818359375
262.46,-0.7880859375
262.47,-0.75439453125
262.48,-0.71484375
262.49,-0.6767578125
262.5,-0.64990234375
262.51,-0.62646484375
262.52,-0.583984375
262.525,-0.294921875
262.535,-0.311279296875
262.545,-0.349609375
262.555,-0.40478515625
262.565,-0.477783203125
262.575,-0.56298828125
262.585,-0.63916015625
262.595,-0.68115234375
262.605,-0.677734375
262.615,-0.6279296875
262.625,-0.5400390625
262.635,-0.4287109375
262.645,-0.308837890625
262.655,-0.204345703125
262.665,-0.14990234375
262.675,-0.1630859375
262.682,-0.2239990234375
262.692,-0.293212890625
262.702,-0.337890625
262.712,-0.341796875
262.722,-0.30908203125
262.732,-0.2548828125
262.742,-0.1922607421875
262.752,-0.1295166015625
262.762,-0.07391357421875
262.772,-0.036346435546875
262.782,-0.03070068359375
262.792,-0.06231689453125
262.802,-0.1171875
262.812,-0.1708984375
262.822,-0.207763671875
262.832,-0.2252197265625
262.842,-0.2257080078125
262.852,-0.207763671875
262.862,-0.1708984375
262.872,-0.12445068359375
262.881,-0.08074951171875
262.891,-0.04583740234375
262.901,-0.025421142578125
262.911,-0.0252532958984375
262.921,-0.039947509765625
262.931,-0.059112548828125
262.941,-0.0838623046875
262.951,-0.1197509765625
262.961,-0.1597900390625
262.971,-0.1866455078125
262.981,-0.1845703125
262.991,-0.1517333984375
263.001,-0.10064697265625
263.011,-0.048370361328125
263.021,-0.00648117065429688
263.031,0.0161285400390625
263.041,0.0099639892578125
263.051,-0.0279541015625
263.061,-0.08477783203125
263.071,-0.13623046875
263.08,-0.162109375
263.09,-0.1524658203125
263.1,-0.10870361328125
263.11,-0.0457763671875
263.12,0.0144271850585938
263.13,0.055816650390625
263.14,0.0697021484375
263.15,0.05029296875
263.16,-0.0028076171875
263.17,-0.0799560546875
263.18,-0.167724609375
263.19,-0.25439453125
263.2,-0.3291015625
263.21,-0.38671875
263.22,-0.432373046875
263.23,-0.468017578125
263.24,-0.479248046875
263.25,-0.44775390625
263.26,-0.37255859375
263.27,-0.279296875
263.274,-0.35546875
263.284,-0.388916015625
263.294,-0.373779296875
263.304,-0.314697265625
263.314,-0.2313232421875
263.324,-0.15380859375
263.334,-0.12420654296875
263.344,-0.17041015625
263.354,-0.278076171875
263.364,-0.403076171875
263.374,-0.50634765625
263.384,-0.564453125
263.394,-0.56787109375
263.404,-0.51513671875
263.414,-0.4111328125
263.424,-0.277587890625
263.432,-0.1553955078125
263.442,-0.08502197265625
263.452,-0.081787109375
263.462,-0.1282958984375
263.472,-0.185791015625
263.482,-0.2191162109375
263.492,-0.216064453125
263.502,-0.1834716796875
263.512,-0.13671875
263.522,-0.09375
263.532,-0.06219482421875
263.542,-0.037933349609375
263.552,-0.0227813720703125
263.562,-0.0267486572265625
263.572,-0.053924560546875
263.582,-0.10076904296875
263.592,-0.1610107421875
263.602,-0.22900390625
263.612,-0.303466796875
263.622,-0.385009765625
263.631,-0.467041015625
263.641,-0.529296875
263.651,-0.54833984375
263.661,-0.51025390625
263.671,-0.422119140625
263.681,-0.308349609375
263.691,-0.1900634765625
263.701,-0.07879638671875
263.711,0.015716552734375
263.721,0.07977294921875
263.731,0.1048583984375
263.741,0.100830078125
263.751,0.090087890625
263.761,0.08306884765625
263.771,0.0718994140625
263.781,0.0489501953125
263.791,0.01641845703125
263.801,-0.01959228515625
263.811,-0.0548095703125
263.821,-0.09039306640625
263.83,-0.129638671875
263.84,-0.16796875
263.85,-0.1888427734375
263.86,-0.1756591796875
263.87,-0.1259765625
263.88,-0.046295166015625
263.89,0.059112548828125
263.9,0.1829833984375
263.91,0.302001953125
263.92,0.375244140625
263.93,0.36376953125
263.94,0.2587890625
263.95,0.0863037109375
263.96,-0.1124267578125
263.97,-0.29443359375
263.98,-0.428955078125
263.99,-0.50927734375
264,-0.54736328125
264.01,-0.55126953125
264.02,-0.51025390625
264.025,0.023193359375
264.035,0.042633056640625
264.045,0.0482177734375
264.055,0.032989501953125
264.065,-0.0122756958007812
264.075,-0.077880859375
264.085,-0.1434326171875
264.095,-0.19482421875
264.105,-0.230224609375
264.115,-0.254638671875
264.125,-0.27001953125
264.135,-0.274169921875
264.145,-0.264892578125
264.155,-0.241943359375
264.165,-0.2119140625
264.175,-0.1893310546875
264.182,-0.1806640625
264.192,-0.17236328125
264.202,-0.145751953125
264.212,-0.0970458984375
264.222,-0.036651611328125
264.232,0.0205230712890625
264.242,0.059600830078125
264.252,0.0740966796875
264.262,0.067138671875
264.272,0.037811279296875
264.282,-0.0193328857421875
264.292,-0.10107421875
264.302,-0.196533203125
264.312,-0.294189453125
264.322,-0.379638671875
264.332,-0.4384765625
264.342,-0.463134765625
264.352,-0.44921875
264.362,-0.390869140625
264.372,-0.29248046875
264.381,-0.1705322265625
264.391,-0.04486083984375
264.401,0.061737060546875
264.411,0.12139892578125
264.421,0.11529541015625
264.431,0.047760009765625
264.441,-0.0579833984375
264.451,-0.173095703125
264.461,-0.275634765625
264.471,-0.35888671875
264.481,-0.42529296875
264.491,-0.475830078125
264.501,-0.51025390625
264.511,-0.5234375
264.521,-0.50146484375
264.531,-0.434326171875
264.541,-0.33056640625
264.551,-0.21240234375
264.561,-0.1048583984375
264.571,-0.03253173828125
264.58,-0.0086517333984375
264.59,-0.0296783447265625
264.6,-0.08355712890625
264.61,-0.152099609375
264.62,-0.2117919921875
264.63,-0.249755859375
264.64,-0.268798828125
264.65,-0.274658203125
264.66,-0.268310546875
264.67,-0.25048828125
264.68,-0.22119140625
264.69,-0.1766357421875
264.7,-0.11041259765625
264.71,-0.0230560302734375
264.72,0.06573486328125
264.73,0.1204833984375
264.74,0.11248779296875
264.75,0.036834716796875
264.76,-0.08551025390625
264.77,-0.2125244140625
264.775,0.140380859375
264.785,0.282958984375
264.795,0.32470703125
264.805,0.233154296875
264.815,0.0167999267578125
264.825,-0.2734375
264.835,-0.560546875
264.845,-0.77001953125
264.855,-0.85107421875
264.865,-0.7890625
264.875,-0.60498046875
264.885,-0.3525390625
264.895,-0.109130859375
264.905,0.052520751953125
264.915,0.101318359375
264.925,0.05322265625
264.932,-0.057342529296875
264.942,-0.191650390625
264.952,-0.305908203125
264.962,-0.36865234375
264.972,-0.376708984375
264.982,-0.34423828125
264.992,-0.2919921875
265.002,-0.238525390625
265.012,-0.1898193359375
265.022,-0.144287109375
265.032,-0.1041259765625
265.042,-0.07257080078125
265.052,-0.053466796875
265.062,-0.05322265625
265.072,-0.0733642578125
265.082,-0.1104736328125
265.092,-0.1605224609375
265.102,-0.2103271484375
265.112,-0.240966796875
265.122,-0.2431640625
265.131,-0.220703125
265.141,-0.1849365234375
265.151,-0.149658203125
265.161,-0.12109375
265.171,-0.10308837890625
265.181,-0.1036376953125
265.191,-0.1248779296875
265.201,-0.1619873046875
265.211,-0.21142578125
265.221,-0.269287109375
265.231,-0.32666015625
265.241,-0.37109375
265.251,-0.39013671875
265.261,-0.372802734375
265.271,-0.319580078125
265.281,-0.244140625
265.291,-0.1640625
265.301,-0.101806640625
265.311,-0.07763671875
265.321,-0.09381103515625
265.33,-0.130859375
265.34,-0.1578369140625
265.35,-0.1497802734375
265.36,-0.10650634765625
265.37,-0.050811767578125
265.38,-0.0126724243164062
265.39,-0.0220184326171875
265.4,-0.0980224609375
265.41,-0.241943359375
265.42,-0.444091796875
265.43,-0.68115234375
265.44,-0.908203125
265.45,-1.0693359375
265.46,-1.1279296875
265.47,-1.0712890625
265.48,-0.91650390625
265.49,-0.70166015625
265.5,-0.471435546875
265.51,-0.26708984375
265.52,-0.12274169921875
265.525,-0.343017578125
265.535,-0.432373046875
265.545,-0.491455078125
265.555,-0.51953125
265.565,-0.52734375
265.575,-0.52880859375
265.585,-0.53955078125
265.595,-0.5771484375
265.605,-0.642578125
265.615,-0.71923828125
265.625,-0.78369140625
265.635,-0.8115234375
265.645,-0.78466796875
265.655,-0.70458984375
265.665,-0.5859375
265.675,-0.4521484375
265.682,-0.327880859375
265.692,-0.237548828125
265.702,-0.2027587890625
265.712,-0.2418212890625
265.722,-0.361572265625
265.732,-0.5458984375
265.742,-0.75341796875
265.752,-0.93017578125
265.762,-1.0283203125
265.772,-1.0263671875
265.782,-0.92578125
265.792,-0.75146484375
265.802,-0.541015625
265.812,-0.328125
265.822,-0.136474609375
265.832,0.019073486328125
265.842,0.1314697265625
265.852,0.2037353515625
265.862,0.24853515625
265.872,0.278076171875
265.881,0.29931640625
265.891,0.320068359375
265.901,0.34521484375
265.911,0.376708984375
265.921,0.42041015625
265.931,0.482421875
265.941,0.5546875
265.951,0.6123046875
265.961,0.6279296875
265.971,0.5849609375
265.981,0.4833984375
265.991,0.326904296875
266.001,0.11865234375
266.011,-0.132568359375
266.021,-0.418212890625
266.031,-0.73583984375
266.041,-1.07421875
266.051,-1.390625
266.061,-1.62109375
266.071,-1.732421875
266.08,-1.740234375
266.09,-1.6875
266.1,-1.609375
266.11,-1.5244140625
266.12,-1.4384765625
266.13,-1.3662109375
266.14,-1.3134765625
266.15,-1.2626953125
266.16,-1.1826171875
266.17,-1.068359375
266.18,-0.9375
266.19,-0.814453125
266.2,-0.70703125
266.21,-0.58984375
266.22,-0.42041015625
266.23,-0.175537109375
266.24,0.11834716796875
266.25,0.39892578125
266.26,0.603515625
266.27,0.69873046875
266.275,-0.12493896484375
266.285,-0.44677734375
266.295,-0.81298828125
266.305,-1.216796875
266.315,-1.640625
266.325,-2.06640625
266.335,-2.482421875
266.345,-2.875
266.355,-3.22265625
266.365,-3.4921875
266.375,-3.640625
266.385,-3.609375
266.395,-3.390625
266.405,-3.048828125
266.415,-2.6953125
266.425,-2.40234375
266.432,-2.1875
266.442,-2.03515625
266.452,-1.923828125
266.462,-1.8251953125
266.472,-1.7216796875
266.482,-1.603515625
266.492,-1.4736328125
266.502,-1.3515625
266.512,-1.255859375
266.522,-1.1953125
266.532,-1.1630859375
266.542,-1.150390625
266.552,-1.146484375
266.562,-1.140625
266.572,-1.1240234375
266.582,-1.1005859375
266.592,-1.0849609375
266.602,-1.080078125
266.612,-1.08203125
266.622,-1.083984375
266.631,-1.08203125
266.641,-1.076171875
266.651,-1.0732421875
266.661,-1.0771484375
266.671,-1.0849609375
266.681,-1.1005859375
266.691,-1.126953125
266.701,-1.1630859375
266.711,-1.2021484375
266.721,-1.23046875
266.731,-1.232421875
266.741,-1.205078125
266.751,-1.1611328125
266.761,-1.1123046875
266.771,-1.0634765625
266.781,-1.0224609375
266.791,-0.9990234375
266.801,-0.99951171875
266.811,-1.021484375
266.821,-1.0517578125
266.829,-1.0673828125
266.839,-1.052734375
266.849,-1.0146484375
266.859,-0.97216796875
266.869,-0.94189453125
266.879,-0.931640625
266.889,-0.93603515625
266.899,-0.947265625
266.909,-0.96142578125
266.919,-0.9814453125
266.929,-1.0068359375
266.939,-1.03515625
266.949,-1.0595703125
266.959,-1.0771484375
266.969,-1.0849609375
266.979,-1.0908203125
266.989,-1.099609375
266.999,-1.115234375
267.009,-1.138671875
267.019,-1.1630859375
267.024,-0.97705078125
267.034,-0.9541015625
267.044,-0.96044921875
267.054,-0.99658203125
267.064,-1.0478515625
267.074,-1.095703125
267.084,-1.1279296875
267.094,-1.1435546875
267.104,-1.146484375
267.114,-1.134765625
267.124,-1.1103515625
267.134,-1.078125
267.144,-1.044921875
267.154,-1.0146484375
267.164,-0.994140625
267.174,-0.9814453125
267.182,-0.96923828125
267.192,-0.953125
267.202,-0.9287109375
267.212,-0.89111328125
267.222,-0.8408203125
267.232,-0.787109375
267.242,-0.7392578125
267.252,-0.70703125
267.262,-0.70263671875
267.272,-0.73291015625
267.282,-0.7939453125
267.292,-0.8671875
267.302,-0.9306640625
267.312,-0.96630859375
267.322,-0.970703125
267.332,-0.95166015625
267.342,-0.912109375
267.352,-0.8564453125
267.362,-0.80126953125
267.372,-0.765625
267.381,-0.75244140625
267.391,-0.755859375
267.401,-0.7783203125
267.411,-0.8212890625
267.421,-0.87451171875
267.431,-0.923828125
267.441,-0.96142578125
267.451,-0.9814453125
267.461,-0.9755859375
267.471,-0.9423828125
267.481,-0.8876953125
267.491,-0.82177734375
267.501,-0.7548828125
267.511,-0.6982421875
267.521,-0.6650390625
267.531,-0.662109375
267.541,-0.677734375
267.551,-0.6953125
267.561,-0.7080078125
267.571,-0.72265625
267.579,-0.74462890625
267.589,-0.7646484375
267.599,-0.76806640625
267.609,-0.75341796875
267.619,-0.732421875
267.629,-0.72021484375
267.639,-0.7138671875
267.649,-0.69677734375
267.659,-0.6533203125
267.669,-0.59228515625
267.679,-0.53662109375
267.689,-0.50048828125
267.699,-0.478271484375
267.709,-0.463623046875
267.719,-0.462158203125
267.729,-0.4853515625
267.739,-0.52880859375
267.749,-0.564453125
267.759,-0.56201171875
267.769,-0.5166015625
267.773,-0.53515625
267.783,-0.55517578125
267.793,-0.5439453125
267.803,-0.52880859375
267.813,-0.54443359375
267.823,-0.60302734375
267.833,-0.68359375
267.843,-0.7373046875
267.853,-0.71923828125
267.863,-0.6142578125
267.873,-0.44677734375
267.883,-0.272705078125
267.893,-0.1566162109375
267.903,-0.1485595703125
267.913,-0.267578125
267.923,-0.490478515625
267.932,-0.74951171875
267.942,-0.95849609375
267.952,-1.0517578125
267.962,-1.0048828125
267.972,-0.8408203125
267.982,-0.61767578125
267.992,-0.399169921875
268.002,-0.2235107421875
268.012,-0.100341796875
268.022,-0.0114898681640625
268.032,0.065185546875
268.042,0.12548828125
268.052,0.1448974609375
268.062,0.10833740234375
268.072,0.018585205078125
268.082,-0.09912109375
268.092,-0.1961669921875
268.102,-0.2325439453125
268.112,-0.20849609375
268.122,-0.1529541015625
268.131,-0.10125732421875
268.141,-0.08123779296875
268.151,-0.09228515625
268.161,-0.1064453125
268.171,-0.10284423828125
268.181,-0.08953857421875
268.191,-0.093505859375
268.201,-0.1358642578125
268.211,-0.209228515625
268.221,-0.277587890625
268.231,-0.298095703125
268.241,-0.23974609375
268.251,-0.10552978515625
268.261,0.05108642578125
268.271,0.14111328125
268.281,0.09527587890625
268.291,-0.0806884765625
268.301,-0.2998046875
268.311,-0.449462890625
268.321,-0.469482421875
268.329,-0.3857421875
268.339,-0.268310546875
268.349,-0.1658935546875
268.359,-0.07647705078125
268.369,0.0304412841796875
268.379,0.1688232421875
268.389,0.3056640625
268.399,0.370849609375
268.409,0.305419921875
268.419,0.1104736328125
268.429,-0.143310546875
268.439,-0.35595703125
268.449,-0.454833984375
268.459,-0.434814453125
268.469,-0.337646484375
268.479,-0.205810546875
268.489,-0.06414794921875
268.499,0.056854248046875
268.509,0.1182861328125
268.519,0.10443115234375
268.523,0.052276611328125
268.533,0.048828125
268.543,0.0023040771484375
268.553,-0.06573486328125
268.563,-0.1300048828125
268.573,-0.1788330078125
268.583,-0.205322265625
268.593,-0.197265625
268.603,-0.1485595703125
268.613,-0.07025146484375
268.623,0.0218658447265625
268.633,0.12298583984375
268.643,0.22607421875
268.653,0.2998046875
268.663,0.3076171875
268.673,0.249755859375
268.682,0.165771484375
268.692,0.09912109375
268.702,0.0628662109375
268.712,0.041534423828125
268.722,0.0214691162109375
268.732,0.012054443359375
268.742,0.03265380859375
268.752,0.0860595703125
268.762,0.152587890625
268.772,0.206787109375
268.782,0.2257080078125
268.792,0.18994140625
268.802,0.0965576171875
268.812,-0.0335693359375
268.822,-0.170166015625
268.832,-0.282958984375
268.842,-0.343994140625
268.852,-0.337890625
268.862,-0.274169921875
268.872,-0.18505859375
268.881,-0.1038818359375
268.891,-0.043853759765625
268.901,-0.00221061706542969
268.911,0.0222015380859375
268.921,0.0255889892578125
268.931,0.010772705078125
268.941,-0.01336669921875
268.951,-0.0400390625
268.961,-0.0650634765625
268.971,-0.08941650390625
268.981,-0.1168212890625
268.991,-0.1446533203125
269.001,-0.1689453125
269.011,-0.1868896484375
269.021,-0.190185546875
269.031,-0.16796875
269.041,-0.11785888671875
269.051,-0.052581787109375
269.061,0.00453948974609375
269.071,0.034454345703125
269.079,0.032806396484375
269.089,0.00743484497070312
269.099,-0.030364990234375
269.109,-0.07061767578125
269.119,-0.1025390625
269.129,-0.11663818359375
269.139,-0.112548828125
269.149,-0.09539794921875
269.159,-0.06939697265625
269.169,-0.039031982421875
269.179,-0.00616455078125
269.189,0.031280517578125
269.199,0.06842041015625
269.209,0.08807373046875
269.219,0.0750732421875
269.229,0.031768798828125
269.239,-0.025543212890625
269.249,-0.0791015625
269.259,-0.1131591796875
269.269,-0.11541748046875
269.273,0.0653076171875
269.283,0.06072998046875
269.293,0.048980712890625
269.303,0.039337158203125
269.313,0.033111572265625
269.323,0.0272369384765625
269.333,0.021026611328125
269.343,0.0148773193359375
269.353,0.0084381103515625
269.363,0.000643730163574219
269.373,-0.0135040283203125
269.383,-0.037109375
269.393,-0.06146240234375
269.403,-0.075439453125
269.413,-0.07855224609375
269.423,-0.0723876953125
269.432,-0.05279541015625
269.442,-0.0163116455078125
269.452,0.032318115234375
269.462,0.07952880859375
269.472,0.10992431640625
269.482,0.114013671875
269.492,0.09161376953125
269.502,0.05279541015625
269.512,0.00984954833984375
269.522,-0.029266357421875
269.532,-0.05615234375
269.542,-0.0638427734375
269.552,-0.053192138671875
269.562,-0.031646728515625
269.572,-0.0107574462890625
269.582,0.00386238098144531
269.592,0.0170440673828125
269.602,0.0294647216796875
269.612,0.033477783203125
269.622,0.0259857177734375
269.631,0.0083465576171875
269.641,-0.0185394287109375
269.651,-0.048675537109375
269.661,-0.07257080078125
269.671,-0.0850830078125
269.681,-0.0826416015625
269.691,-0.059539794921875
269.701,-0.0157012939453125
269.711,0.0391845703125
269.721,0.09344482421875
269.731,0.1397705078125
269.741,0.167724609375
269.751,0.1612548828125
269.761,0.11529541015625
269.771,0.044830322265625
269.781,-0.0299072265625
269.791,-0.0947265625
269.801,-0.1414794921875
269.811,-0.1689453125
269.821,-0.1778564453125
269.829,-0.1644287109375
269.839,-0.1239013671875
269.849,-0.0638427734375
269.859,-0.00228309631347656
269.869,0.045257568359375
269.879,0.07012939453125
269.889,0.0726318359375
269.899,0.0621337890625
269.909,0.04736328125
269.919,0.03167724609375
269.929,0.0186004638671875
269.939,0.011016845703125
269.949,0.00676345825195312
269.959,0.004669189453125
269.969,0.00691986083984375
269.979,0.00908660888671875
269.989,0.00138378143310547
269.999,-0.0174407958984375
270.009,-0.040435791015625
270.019,-0.0616455078125
270.024,-0.07598876953125
270.034,-0.0657958984375
270.044,-0.0599365234375
270.054,-0.05218505859375
270.064,-0.032073974609375
270.074,0.00387954711914062
270.084,0.049774169921875
270.094,0.0965576171875
270.104,0.1375732421875
270.114,0.17041015625
270.124,0.1947021484375
270.134,0.2083740234375
270.144,0.2041015625
270.154,0.170166015625
270.164,0.09930419921875
270.174,-0.00647354125976562
270.182,-0.135498046875
270.192,-0.265625
270.202,-0.370361328125
270.212,-0.430419921875
270.222,-0.437744140625
270.232,-0.397705078125
270.242,-0.326904296875
270.252,-0.249267578125
270.262,-0.1834716796875
270.272,-0.1357421875
270.282,-0.11077880859375
270.292,-0.12158203125
270.302,-0.1788330078125
270.312,-0.272216796875
270.322,-0.3720703125
270.332,-0.44921875
270.342,-0.489990234375
270.352,-0.501953125
270.362,-0.505859375
270.372,-0.525390625
270.381,-0.568359375
270.391,-0.62646484375
270.401,-0.69140625
270.411,-0.751953125
270.421,-0.798828125
270.431,-0.84912109375
270.441,-0.9287109375
270.451,-1.0224609375
270.461,-1.0869140625
270.471,-1.103515625
270.481,-1.0986328125
270.491,-1.0947265625
270.501,-1.0830078125
270.511,-1.056640625
270.521,-1.03125
270.531,-1.015625
270.541,-1.01171875
270.551,-1.0302734375
270.561,-1.0634765625
270.571,-1.0869140625
270.579,-1.0830078125
270.589,-1.044921875
270.599,-0.96875
270.609,-0.8642578125
270.619,-0.75634765625
270.629,-0.66064453125
270.639,-0.583984375
270.649,-0.54150390625
270.659,-0.53759765625
270.669,-0.552734375
270.679,-0.57373046875
270.689,-0.60986328125
270.699,-0.6650390625
270.709,-0.71533203125
270.719,-0.73583984375
270.729,-0.7353515625
270.739,-0.73583984375
270.749,-0.73486328125
270.759,-0.720703125
270.769,-0.708984375
270.773,-0.69580078125
270.783,-0.69921875
270.793,-0.6923828125
270.803,-0.65966796875
270.813,-0.62548828125
270.823,-0.61962890625
270.833,-0.6298828125
270.843,-0.62109375
270.853,-0.58740234375
270.863,-0.5595703125
270.873,-0.55517578125
270.883,-0.552734375
270.893,-0.52685546875
270.903,-0.4912109375
270.913,-0.48095703125
270.923,-0.50634765625
270.932,-0.533203125
270.942,-0.51708984375
270.952,-0.4501953125
270.962,-0.378173828125
270.972,-0.35546875
270.982,-0.394287109375
270.992,-0.458740234375
271.002,-0.5078125
271.012,-0.53564453125
271.022,-0.572265625
271.032,-0.6435546875
271.042,-0.73095703125
271.052,-0.77880859375
271.062,-0.75
271.072,-0.6669921875
271.082,-0.5927734375
271.092,-0.5712890625
271.102,-0.58984375
271.112,-0.59765625
271.122,-0.556640625
271.13,-0.473388671875
271.14,-0.39111328125
271.15,-0.35693359375
271.16,-0.383056640625
271.17,-0.4375
271.18,-0.4716796875
271.19,-0.455078125
271.2,-0.391357421875
271.21,-0.318115234375
271.22,-0.291748046875
271.23,-0.35693359375
271.24,-0.5185546875
271.25,-0.7333984375
271.26,-0.9248046875
271.27,-1.0146484375
271.28,-0.96240234375
271.29,-0.78564453125
271.3,-0.546875
271.31,-0.321533203125
271.32,-0.166015625
271.329,-0.10626220703125
271.339,-0.13623046875
271.349,-0.2218017578125
271.359,-0.3125
271.369,-0.361083984375
271.379,-0.341796875
271.389,-0.260498046875
271.399,-0.1468505859375
271.409,-0.036102294921875
271.419,0.05029296875
271.429,0.10430908203125
271.439,0.1209716796875
271.449,0.09893798828125
271.459,0.0433349609375
271.469,-0.03704833984375
271.479,-0.132080078125
271.489,-0.2308349609375
271.499,-0.31591796875
271.509,-0.35791015625
271.519,-0.327392578125
271.523,0.2017822265625
271.533,0.211669921875
271.543,0.214599609375
271.553,0.2188720703125
271.563,0.2073974609375
271.573,0.1539306640625
271.583,0.059967041015625
271.593,-0.040618896484375
271.603,-0.12158203125
271.613,-0.1817626953125
271.623,-0.224609375
271.633,-0.2437744140625
271.643,-0.2271728515625
271.653,-0.1729736328125
271.663,-0.10223388671875
271.673,-0.043487548828125
271.682,-0.0105361938476562
271.692,-0.00270843505859375
271.702,-0.0109710693359375
271.712,-0.019439697265625
271.722,-0.0155181884765625
271.732,0.000963687896728516
271.742,0.023162841796875
271.752,0.044708251953125
271.762,0.061553955078125
271.772,0.07305908203125
271.782,0.0799560546875
271.792,0.08038330078125
271.802,0.07220458984375
271.812,0.052947998046875
271.822,0.0154571533203125
271.832,-0.04449462890625
271.842,-0.11199951171875
271.852,-0.1590576171875
271.862,-0.1693115234375
271.872,-0.145751953125
271.88,-0.09771728515625
271.89,-0.033660888671875
271.9,0.0289459228515625
271.91,0.06695556640625
271.92,0.0765380859375
271.93,0.0775146484375
271.94,0.08416748046875
271.95,0.09283447265625
271.96,0.09893798828125
271.97,0.10791015625
271.98,0.1253662109375
271.99,0.14697265625
272,0.16357421875
272.01,0.1717529296875
272.02,0.1688232421875
272.03,0.146484375
272.04,0.098876953125
272.05,0.0280303955078125
272.06,-0.06256103515625
272.07,-0.1629638671875
272.079,-0.25830078125
272.089,-0.336181640625
272.099,-0.37548828125
272.109,-0.349609375
272.119,-0.259521484375
272.129,-0.13427734375
272.139,-0.00669479370117188
272.149,0.0955810546875
272.159,0.1483154296875
272.169,0.1400146484375
272.179,0.0775146484375
272.189,-0.0243377685546875
272.199,-0.148193359375
272.209,-0.266357421875
272.219,-0.3447265625
272.229,-0.36328125
272.239,-0.320068359375
272.249,-0.2244873046875
272.259,-0.09814453125
272.269,0.0236968994140625
272.273,-0.0141830444335938
272.283,-0.0703125
272.293,-0.1019287109375
272.303,-0.10479736328125
272.313,-0.08050537109375
272.323,-0.047119140625
272.333,-0.0234832763671875
272.343,-0.0149993896484375
272.353,-0.020965576171875
272.363,-0.033447265625
272.373,-0.0394287109375
272.383,-0.03887939453125
272.393,-0.039703369140625
272.403,-0.041015625
272.413,-0.042236328125
272.423,-0.0458984375
272.432,-0.0452880859375
272.442,-0.033111572265625
272.452,-0.00966644287109375
272.462,0.0225830078125
272.472,0.056121826171875
272.482,0.0831298828125
272.492,0.102294921875
272.502,0.106689453125
272.512,0.08819580078125
272.522,0.054412841796875
272.532,0.019439697265625
272.542,-0.00262260437011719
272.552,-0.000603675842285156
272.562,0.0199432373046875
272.572,0.045013427734375
272.582,0.06695556640625
272.592,0.08099365234375
272.602,0.08819580078125
272.612,0.09698486328125
272.622,0.117431640625
272.63,0.1583251953125
272.64,0.2071533203125
272.65,0.2083740234375
272.66,0.09637451171875
272.67,-0.135986328125
272.68,-0.399169921875
272.69,-0.5322265625
272.7,-0.406494140625
272.71,-0.036712646484375
272.72,0.407470703125
272.73,0.71875
272.74,0.796875
272.75,0.72021484375
272.76,0.6640625
272.77,0.7197265625
272.78,0.80322265625
272.79,0.7421875
272.8,0.43798828125
272.81,-0.0511474609375
272.82,-0.544921875
272.829,-0.82763671875
272.839,-0.75439453125
272.849,-0.347412109375
272.859,0.1982421875
272.869,0.6171875
272.879,0.71728515625
272.889,0.47607421875
272.899,0.05535888671875
272.909,-0.283935546875
272.919,-0.33935546875
272.929,-0.09014892578125
272.939,0.307861328125
272.949,0.62890625
272.959,0.69580078125
272.969,0.4541015625
272.979,-0.01922607421875
272.989,-0.5615234375
272.999,-0.9814453125
273.009,-1.1162109375
273.019,-0.9111328125
273.024,0.02520751953125
273.034,-0.375
273.044,-0.74951171875
273.054,-0.99267578125
273.064,-1.068359375
273.074,-0.974609375
273.084,-0.70361328125
273.094,-0.253662109375
273.104,0.330322265625
273.114,0.93701171875
273.124,1.4169921875
273.134,1.6376953125
273.144,1.5322265625
273.154,1.1318359375
273.164,0.55029296875
273.174,-0.0794677734375
273.182,-0.6484375
273.192,-1.08203125
273.202,-1.33203125
273.212,-1.380859375
273.222,-1.2470703125
273.232,-0.96875
273.242,-0.58056640625
273.252,-0.1112060546875
273.262,0.40283203125
273.272,0.91455078125
273.282,1.369140625
273.292,1.7119140625
273.302,1.8984375
273.312,1.908203125
273.322,1.7587890625
273.332,1.4931640625
273.342,1.1474609375
273.352,0.7568359375
273.362,0.3564453125
273.372,-0.03302001953125
273.38,-0.4150390625
273.39,-0.7978515625
273.4,-1.1689453125
273.41,-1.4970703125
273.42,-1.7568359375
273.43,-1.9423828125
273.44,-2.060546875
273.45,-2.1328125
273.46,-2.189453125
273.47,-2.2578125
273.48,-2.333984375
273.49,-2.40234375
273.5,-2.453125
273.51,-2.474609375
273.52,-2.453125
273.53,-2.3984375
273.54,-2.330078125
273.55,-2.2578125
273.56,-2.1796875
273.57,-2.091796875
273.579,-1.9873046875
273.589,-1.869140625
273.599,-1.744140625
273.609,-1.61328125
273.619,-1.4638671875
273.629,-1.279296875
273.639,-1.0634765625
273.649,-0.8310546875
273.659,-0.6015625
273.669,-0.398681640625
273.679,-0.2470703125
273.689,-0.1597900390625
273.699,-0.13330078125
273.709,-0.1517333984375
273.719,-0.1885986328125
273.729,-0.218505859375
273.739,-0.225830078125
273.749,-0.201416015625
273.759,-0.1431884765625
273.769,-0.058135986328125
273.773,0.10675048828125
273.783,0.019561767578125
273.793,-0.0916748046875
273.803,-0.2052001953125
273.813,-0.287841796875
273.823,-0.3203125
273.833,-0.306884765625
273.843,-0.259033203125
273.853,-0.1854248046875
273.863,-0.10064697265625
273.873,-0.0235137939453125
273.883,0.036529541015625
273.893,0.079345703125
273.903,0.09783935546875
273.913,0.0838623046875
273.923,0.046051025390625
273.932,-0.000139236450195312
273.942,-0.052734375
273.952,-0.11737060546875
273.962,-0.18701171875
273.972,-0.2421875
273.982,-0.271240234375
273.992,-0.2783203125
274.002,-0.268798828125
274.012,-0.243896484375
274.022,-0.2081298828125
274.032,-0.173828125
274.042,-0.1507568359375
274.052,-0.1402587890625
274.062,-0.14013671875
274.072,-0.14208984375
274.082,-0.131591796875
274.092,-0.09820556640625
274.102,-0.04949951171875
274.112,-0.007110595703125
274.122,0.00959014892578125
274.13,-0.00644683837890625
274.14,-0.053619384765625
274.15,-0.1221923828125
274.16,-0.18994140625
274.17,-0.23291015625
274.18,-0.241943359375
274.19,-0.2235107421875
274.2,-0.1875
274.21,-0.141357421875
274.22,-0.0950927734375
274.23,-0.058197021484375
274.24,-0.025787353515625
274.25,0.0123519897460938
274.26,0.050262451171875
274.27,0.06982421875
274.28,0.05816650390625
274.29,0.0088348388671875
274.3,-0.07733154296875
274.31,-0.1790771484375
274.32,-0.26220703125
274.329,-0.313720703125
274.339,-0.3447265625
274.349,-0.35498046875
274.359,-0.324462890625
274.369,-0.248046875
274.379,-0.14111328125
274.389,-0.017669677734375
274.399,0.10400390625
274.409,0.186767578125
274.419,0.2034912109375
274.429,0.1614990234375
274.439,0.08203125
274.449,-0.017730712890625
274.459,-0.11700439453125
274.469,-0.1907958984375
274.479,-0.2271728515625
274.489,-0.2305908203125
274.499,-0.207763671875
274.509,-0.1590576171875
274.519,-0.0908203125
274.523,-0.00486373901367188
274.533,-0.086669921875
274.543,-0.19091796875
274.553,-0.298828125
274.563,-0.384765625
274.573,-0.423095703125
274.583,-0.40478515625
274.593,-0.346923828125
274.603,-0.280029296875
274.613,-0.2261962890625
274.623,-0.1964111328125
274.633,-0.186279296875
274.643,-0.1678466796875
274.653,-0.11334228515625
274.663,-0.0264434814453125
274.673,0.07147216796875
274.682,0.1641845703125
274.692,0.2325439453125
274.702,0.258544921875
274.712,0.248046875
274.722,0.21923828125
274.732,0.17578125
274.742,0.11236572265625
274.752,0.034271240234375
274.762,-0.045654296875
274.772,-0.12841796875
274.782,-0.23388671875
274.792,-0.36669921875
274.802,-0.493408203125
274.812,-0.57080078125
274.822,-0.57177734375
274.832,-0.48046875
274.842,-0.30810546875
274.852,-0.109375
274.862,0.058685302734375
274.872,0.180908203125
274.88,0.26513671875
274.89,0.309326171875
274.9,0.3095703125
274.91,0.27685546875
274.92,0.224853515625
274.93,0.1649169921875
274.94,0.11541748046875
274.95,0.09320068359375
274.96,0.09149169921875
274.97,0.086181640625
274.98,0.06109619140625
274.99,0.017822265625
275,-0.034027099609375
275.01,-0.09136962890625
275.02,-0.16259765625
275.03,-0.25341796875
275.04,-0.35107421875
275.05,-0.4267578125
275.06,-0.451171875
275.07,-0.418701171875
275.079,-0.35693359375
275.089,-0.2939453125
275.099,-0.238037109375
275.109,-0.1943359375
275.119,-0.1644287109375
275.129,-0.129150390625
275.139,-0.06829833984375
275.149,0.00458145141601562
275.159,0.056243896484375
275.169,0.07342529296875
275.179,0.06829833984375
275.189,0.05029296875
275.199,0.0155105590820312
275.209,-0.034271240234375
275.219,-0.0836181640625
275.229,-0.11785888671875
275.239,-0.1380615234375
275.249,-0.1651611328125
275.259,-0.2156982421875
275.269,-0.273193359375
275.273,-0.04254150390625
275.283,0.054229736328125
275.293,0.13330078125
275.303,0.1812744140625
275.313,0.2052001953125
275.323,0.2244873046875
275.333,0.2401123046875
275.343,0.229248046875
275.353,0.1751708984375
275.363,0.0863037109375
275.373,-0.01922607421875
275.383,-0.1326904296875
275.393,-0.252685546875
275.403,-0.37548828125
275.413,-0.478271484375
275.423,-0.51318359375
275.431,-0.45068359375
275.441,-0.314697265625
275.451,-0.1622314453125
275.461,-0.03936767578125
275.471,0.032928466796875
275.481,0.053497314453125
275.491,0.0310516357421875
275.501,-0.027374267578125
275.511,-0.10699462890625
275.521,-0.16943359375
275.531,-0.1796875
275.541,-0.146728515625
275.551,-0.11328125
275.561,-0.1109619140625
275.571,-0.1400146484375
275.581,-0.1798095703125
275.591,-0.21337890625
275.601,-0.24365234375
275.611,-0.2783203125
275.621,-0.316162109375
275.63,-0.354736328125
275.64,-0.391845703125
275.65,-0.414306640625
275.66,-0.40625
275.67,-0.3720703125
275.68,-0.339599609375
275.69,-0.349365234375
275.7,-0.439697265625
275.71,-0.60986328125
275.72,-0.80810546875
275.73,-0.97119140625
275.74,-1.0712890625
275.75,-1.126953125
275.76,-1.20703125
275.77,-1.3935546875
275.78,-1.720703125
275.79,-2.16796875
275.8,-2.666015625
275.81,-3.125
275.82,-3.46875
275.829,-3.669921875
275.839,-3.74609375
275.849,-3.73828125
275.859,-3.685546875
275.869,-3.59375
275.879,-3.431640625
275.889,-3.15234375
275.899,-2.744140625
275.909,-2.26953125
275.919,-1.8310546875
275.929,-1.5166015625
275.939,-1.3427734375
275.949,-1.2626953125
275.959,-1.203125
275.969,-1.1298828125
275.979,-1.0517578125
275.989,-0.98876953125
275.999,-0.9404296875
276.009,-0.90869140625
276.019,-0.90673828125
276.024,-1.265625
276.034,-1.2744140625
276.044,-1.23828125
276.054,-1.1640625
276.064,-1.0625
276.074,-0.9501953125
276.084,-0.845703125
276.094,-0.76318359375
276.104,-0.71826171875
276.114,-0.72216796875
276.124,-0.76904296875
276.134,-0.83984375
276.144,-0.90966796875
276.154,-0.955078125
276.164,-0.97314453125
276.174,-0.97802734375
276.181,-0.9794921875
276.191,-0.97509765625
276.201,-0.962890625
276.211,-0.9423828125
276.221,-0.9208984375
276.231,-0.91259765625
276.241,-0.92626953125
276.251,-0.96240234375
276.261,-1.0107421875
276.271,-1.0517578125
276.281,-1.072265625
276.291,-1.064453125
276.301,-1.033203125
276.311,-0.990234375
276.321,-0.94677734375
276.331,-0.91650390625
276.341,-0.9072265625
276.351,-0.9150390625
276.361,-0.9296875
276.371,-0.9423828125
276.38,-0.94775390625
276.39,-0.947265625
276.4,-0.9453125
276.41,-0.9365234375
276.42,-0.9169921875
276.43,-0.8857421875
276.44,-0.84814453125
276.45,-0.8134765625
276.46,-0.79443359375
276.47,-0.79638671875
276.48,-0.81640625
276.49,-0.84716796875
276.5,-0.87548828125
276.51,-0.8876953125
276.52,-0.87939453125
276.53,-0.85498046875
276.54,-0.822265625
276.55,-0.79443359375
276.56,-0.77978515625
276.57,-0.77490234375
276.579,-0.76806640625
276.589,-0.75390625
276.599,-0.73193359375
276.609,-0.70068359375
276.619,-0.66650390625
276.629,-0.64013671875
276.639,-0.62744140625
276.649,-0.62744140625
276.659,-0.640625
276.669,-0.67041015625
276.679,-0.70947265625
276.689,-0.73876953125
276.699,-0.74755859375
276.709,-0.7421875
276.719,-0.732421875
276.729,-0.72216796875
276.739,-0.720703125
276.749,-0.7373046875
276.759,-0.7666015625
276.769,-0.79150390625
276.774,-0.87548828125
276.784,-0.85791015625
276.794,-0.8291015625
276.804,-0.79248046875
276.814,-0.7421875
276.824,-0.6806640625
276.834,-0.62255859375
276.844,-0.580078125
276.854,-0.556640625
276.864,-0.552734375
276.874,-0.57275390625
276.884,-0.61865234375
276.894,-0.6904296875
276.904,-0.78369140625
276.914,-0.8720703125
276.924,-0.9150390625
276.931,-0.89111328125
276.941,-0.81982421875
276.951,-0.74560546875
276.961,-0.7001953125
276.971,-0.6865234375
276.981,-0.685546875
276.991,-0.67529296875
277.001,-0.65087890625
277.011,-0.62109375
277.021,-0.5947265625
277.031,-0.5693359375
277.041,-0.53564453125
277.051,-0.49169921875
277.061,-0.44384765625
277.071,-0.4033203125
277.081,-0.37548828125
277.091,-0.359619140625
277.101,-0.353759765625
277.111,-0.356689453125
277.121,-0.364013671875
277.13,-0.373291015625
277.14,-0.390625
277.15,-0.428955078125
277.16,-0.495849609375
277.17,-0.5830078125
277.18,-0.666015625
277.19,-0.71875
277.2,-0.72119140625
277.21,-0.65771484375
277.22,-0.5224609375
277.23,-0.3427734375
277.24,-0.181884765625
277.25,-0.108154296875
277.26,-0.152587890625
277.27,-0.29248046875
277.28,-0.466064453125
277.29,-0.60205078125
277.3,-0.64892578125
277.31,-0.58740234375
277.32,-0.448486328125
277.329,-0.310546875
277.339,-0.251953125
277.349,-0.28515625
277.359,-0.343505859375
277.369,-0.3505859375
277.379,-0.289794921875
277.389,-0.2021484375
277.399,-0.13916015625
277.409,-0.126220703125
277.419,-0.147216796875
277.429,-0.149169921875
277.439,-0.08221435546875
277.449,0.048492431640625
277.459,0.1727294921875
277.469,0.2049560546875
277.479,0.10992431640625
277.489,-0.06671142578125
277.499,-0.2298583984375
277.509,-0.3017578125
277.519,-0.27001953125
277.523,0.1644287109375
277.533,0.1910400390625
277.543,0.129638671875
277.553,-0.00788116455078125
277.563,-0.1600341796875
277.573,-0.260986328125
277.583,-0.282470703125
277.593,-0.2427978515625
277.603,-0.17724609375
277.613,-0.10028076171875
277.623,-0.0111923217773438
277.633,0.073974609375
277.643,0.126220703125
277.653,0.13720703125
277.663,0.12420654296875
277.673,0.108154296875
277.681,0.0948486328125
277.691,0.0684814453125
277.701,0.0112228393554688
277.711,-0.0693359375
277.721,-0.146484375
277.731,-0.2044677734375
277.741,-0.2476806640625
277.751,-0.282470703125
277.761,-0.299560546875
277.771,-0.288818359375
277.781,-0.259033203125
277.791,-0.2216796875
277.801,-0.1640625
277.811,-0.06756591796875
277.821,0.05474853515625
277.831,0.1575927734375
277.841,0.202392578125
277.851,0.189697265625
277.861,0.15087890625
277.871,0.1044921875
277.88,0.0372314453125
277.89,-0.062286376953125
277.9,-0.1722412109375
277.91,-0.250732421875
277.92,-0.270263671875
277.93,-0.22900390625
277.94,-0.142578125
277.95,-0.037322998046875
277.96,0.056549072265625
277.97,0.11871337890625
277.98,0.1524658203125
277.99,0.1715087890625
278,0.1715087890625
278.01,0.13623046875
278.02,0.07220458984375
278.03,0.0099945068359375
278.04,-0.031097412109375
278.05,-0.0574951171875
278.06,-0.0797119140625
278.07,-0.0965576171875
278.079,-0.1031494140625
278.089,-0.0985107421875
278.099,-0.08294677734375
278.109,-0.0565185546875
278.119,-0.01953125
278.129,0.024993896484375
278.139,0.06903076171875
278.149,0.10345458984375
278.159,0.11993408203125
278.169,0.1097412109375
278.179,0.065673828125
278.189,-0.0100784301757812
278.199,-0.09869384765625
278.209,-0.1737060546875
278.219,-0.2200927734375
278.229,-0.2391357421875
278.239,-0.2347412109375
278.249,-0.21044921875
278.259,-0.1807861328125
278.269,-0.16650390625
278.273,-0.3095703125
278.283,-0.30859375
278.293,-0.289794921875
278.303,-0.25146484375
278.313,-0.1954345703125
278.323,-0.13330078125
278.333,-0.07843017578125
278.343,-0.041900634765625
278.353,-0.032440185546875
278.363,-0.046905517578125
278.373,-0.07049560546875
278.383,-0.093505859375
278.393,-0.12030029296875
278.403,-0.158935546875
278.413,-0.2049560546875
278.423,-0.2440185546875
278.431,-0.268310546875
278.441,-0.274169921875
278.451,-0.2493896484375
278.461,-0.18212890625
278.471,-0.0775146484375
278.481,0.045166015625
278.491,0.162353515625
278.501,0.2442626953125
278.511,0.26416015625
278.521,0.220703125
278.531,0.138427734375
278.541,0.04791259765625
278.551,-0.0266876220703125
278.561,-0.07208251953125
278.571,-0.08746337890625
278.581,-0.0780029296875
278.591,-0.048126220703125
278.601,-0.004150390625
278.611,0.04522705078125
278.621,0.091064453125
278.63,0.12286376953125
278.64,0.1318359375
278.65,0.11749267578125
278.66,0.0855712890625
278.67,0.041107177734375
278.68,-0.0119781494140625
278.69,-0.06317138671875
278.7,-0.09820556640625
278.71,-0.11029052734375
278.72,-0.099365234375
278.73,-0.06768798828125
278.74,-0.02398681640625
278.75,0.018218994140625
278.76,0.047027587890625
278.77,0.054962158203125
278.78,0.042999267578125
278.79,0.0184173583984375
278.8,-0.012542724609375
278.81,-0.04229736328125
278.82,-0.060150146484375
278.829,-0.0589599609375
278.839,-0.040252685546875
278.849,-0.0140914916992188
278.859,0.0123138427734375
278.869,0.040191650390625
278.879,0.06585693359375
278.889,0.07745361328125
278.899,0.068115234375
278.909,0.038238525390625
278.919,-0.013336181640625
278.929,-0.08697509765625
278.939,-0.1710205078125
278.949,-0.2427978515625
278.959,-0.27880859375
278.969,-0.265380859375
278.979,-0.215576171875
278.989,-0.1683349609375
278.999,-0.1478271484375
279.009,-0.1201171875
279.019,-0.026611328125
279.024,-0.384765625
279.034,-0.59521484375
279.044,-0.56982421875
279.054,-0.27734375
279.064,0.196533203125
279.074,0.68505859375
279.084,1.0087890625
279.094,1.044921875
279.104,0.78125
279.114,0.318359375
279.124,-0.169921875
279.134,-0.5234375
279.144,-0.6748046875
279.154,-0.6640625
279.164,-0.59033203125
279.174,-0.51220703125
279.181,-0.394287109375
279.191,-0.1451416015625
279.201,0.27099609375
279.211,0.7587890625
279.221,1.1396484375
279.231,1.275390625
279.241,1.146484375
279.251,0.83740234375
279.261,0.475341796875
279.271,0.1748046875
279.281,-0.0166473388671875
279.291,-0.13134765625
279.301,-0.2261962890625
279.311,-0.332275390625
279.321,-0.451416015625
279.331,-0.560546875
279.341,-0.6171875
279.351,-0.58349609375
279.361,-0.446044921875
279.371,-0.2216796875
279.38,0.040802001953125
279.39,0.27685546875
279.4,0.432373046875
279.41,0.484130859375
279.42,0.439697265625
279.43,0.328857421875
279.44,0.1904296875
279.45,0.052398681640625
279.46,-0.0736083984375
279.47,-0.180908203125
279.48,-0.260498046875
279.49,-0.3037109375
279.5,-0.306640625
279.51,-0.273193359375
279.52,-0.2152099609375
279.53,-0.149169921875
279.54,-0.08880615234375
279.55,-0.04083251953125
279.56,-0.00945281982421875
279.57,0.00265121459960938
279.574,-0.0325927734375
279.584,-0.0209197998046875
279.594,-0.0089111328125
279.604,-0.00467681884765625
279.614,-0.0104293823242188
279.624,-0.0222625732421875
279.634,-0.032318115234375
279.644,-0.036224365234375
279.654,-0.033843994140625
279.664,-0.0243377685546875
279.674,-0.00634384155273438
279.684,0.021087646484375
279.694,0.05609130859375
279.704,0.091064453125
279.714,0.11663818359375
279.724,0.12548828125
279.732,0.114501953125
279.742,0.08740234375
279.752,0.055755615234375
279.762,0.031158447265625
279.772,0.0183563232421875
279.782,0.0185394287109375
279.792,0.03338623046875
279.802,0.060272216796875
279.812,0.08868408203125
279.822,0.10882568359375
279.832,0.117431640625
279.842,0.11029052734375
279.852,0.0814208984375
279.862,0.0288543701171875
279.872,-0.044464111328125
279.882,-0.12939453125
279.892,-0.2152099609375
279.902,-0.294921875
279.912,-0.360595703125
279.922,-0.3974609375
279.931,-0.394775390625
279.941,-0.351806640625
279.951,-0.275390625
279.961,-0.18408203125
279.971,-0.097900390625
279.981,-0.027099609375
279.991,0.0252838134765625
280.001,0.0562744140625
280.011,0.06500244140625
280.021,0.052886962890625
280.031,0.025634765625
280.041,-0.0062408447265625
280.051,-0.034912109375
280.061,-0.06024169921875
280.071,-0.08612060546875
280.081,-0.11468505859375
280.091,-0.1444091796875
280.101,-0.1693115234375
280.111,-0.18212890625
280.121,-0.184814453125
280.13,-0.1805419921875
280.14,-0.162841796875
280.15,-0.12451171875
280.16,-0.0682373046875
280.17,-0.00799560546875
280.18,0.03363037109375
280.19,0.03936767578125
280.2,0.0114059448242188
280.21,-0.035247802734375
280.22,-0.08502197265625
280.23,-0.1265869140625
280.24,-0.1551513671875
280.25,-0.1690673828125
280.26,-0.1646728515625
280.27,-0.1402587890625
280.28,-0.10211181640625
280.29,-0.059783935546875
280.3,-0.0205841064453125
280.31,0.00695419311523438
280.32,0.0159912109375
280.324,0.0201263427734375
280.334,0.035858154296875
280.344,0.041961669921875
280.354,0.04156494140625
280.364,0.039215087890625
280.374,0.0300445556640625
280.384,0.010986328125
280.394,-0.0104827880859375
280.404,-0.0274810791015625
280.414,-0.04132080078125
280.424,-0.05224609375
280.434,-0.052886962890625
280.444,-0.0379638671875
280.454,-0.0178375244140625
280.464,-0.0130996704101562
280.474,-0.0297393798828125
280.482,-0.050750732421875
280.492,-0.06719970703125
280.502,-0.0965576171875
280.512,-0.15087890625
280.522,-0.2144775390625
280.532,-0.263671875
280.542,-0.280517578125
280.552,-0.243408203125
280.562,-0.1353759765625
280.572,0.0224456787109375
280.582,0.168701171875
280.592,0.2431640625
280.602,0.2269287109375
280.612,0.142822265625
280.622,0.0288543701171875
280.632,-0.07916259765625
280.642,-0.1591796875
280.652,-0.2164306640625
280.662,-0.271728515625
280.672,-0.332275390625
280.681,-0.381591796875
280.691,-0.405517578125
280.701,-0.4130859375
280.711,-0.420654296875
280.721,-0.423828125
280.731,-0.400146484375
280.741,-0.33642578125
280.751,-0.2481689453125
280.761,-0.1612548828125
280.771,-0.0743408203125
280.781,0.029296875
280.791,0.13916015625
280.801,0.2132568359375
280.811,0.216796875
280.821,0.1572265625
280.831,0.07196044921875
280.841,-0.0109176635742188
280.851,-0.0821533203125
280.861,-0.143798828125
280.871,-0.2078857421875
280.88,-0.286376953125
280.89,-0.37158203125
280.9,-0.426513671875
280.91,-0.408203125
280.92,-0.319580078125
280.93,-0.216064453125
280.94,-0.160400390625
280.95,-0.1806640625
280.96,-0.249267578125
280.97,-0.304443359375
280.98,-0.3037109375
280.99,-0.2421875
281,-0.1429443359375
281.01,-0.0577392578125
281.02,-0.04095458984375
281.03,-0.1077880859375
281.04,-0.229248046875
281.05,-0.353515625
281.06,-0.427001953125
281.07,-0.4189453125
281.074,-0.047698974609375
281.084,-0.0146255493164062
281.094,0.0220489501953125
281.104,0.052642822265625
281.114,0.06005859375
281.124,0.030029296875
281.134,-0.045440673828125
281.144,-0.1656494140625
281.154,-0.318359375
281.164,-0.476318359375
281.174,-0.5986328125
281.184,-0.64697265625
281.194,-0.607421875
281.204,-0.49609375
281.214,-0.343505859375
281.224,-0.187255859375
281.232,-0.060791015625
281.242,0.016143798828125
281.252,0.041534423828125
281.262,0.029052734375
281.272,-0.000956058502197266
281.282,-0.032958984375
281.292,-0.05401611328125
281.302,-0.04962158203125
281.312,-0.014068603515625
281.322,0.045318603515625
281.332,0.11474609375
281.342,0.173095703125
281.352,0.1943359375
281.362,0.1612548828125
281.372,0.0721435546875
281.382,-0.06378173828125
281.392,-0.224609375
281.402,-0.3779296875
281.412,-0.491455078125
281.422,-0.53955078125
281.431,-0.5068359375
281.441,-0.398193359375
281.451,-0.2445068359375
281.461,-0.0855712890625
281.471,0.042510986328125
281.481,0.11773681640625
281.491,0.1331787109375
281.501,0.08941650390625
281.511,-0.0092620849609375
281.521,-0.150634765625
281.531,-0.3115234375
281.541,-0.462646484375
281.551,-0.57373046875
281.561,-0.6240234375
281.571,-0.60693359375
281.581,-0.529296875
281.591,-0.407470703125
281.601,-0.265625
281.611,-0.1318359375
281.621,-0.0252532958984375
281.63,0.0462646484375
281.64,0.08465576171875
281.65,0.0955810546875
281.66,0.08251953125
281.67,0.05010986328125
281.68,0.00731658935546875
281.69,-0.0391845703125
281.7,-0.09051513671875
281.71,-0.1534423828125
281.72,-0.236083984375
281.73,-0.340576171875
281.74,-0.45361328125
281.75,-0.54833984375
281.76,-0.5966796875
281.77,-0.5771484375
281.78,-0.490966796875
281.79,-0.394775390625
281.8,-0.367919921875
281.81,-0.41259765625
281.82,-0.46484375
281.825,0.41845703125
281.835,0.72216796875
281.845,0.8896484375
281.855,0.82421875
281.865,0.53955078125
281.875,0.11480712890625
281.885,-0.37939453125
281.895,-0.8466796875
281.905,-1.1416015625
281.915,-1.193359375
281.925,-1.1044921875
281.935,-1.025390625
281.945,-1.001953125
281.955,-0.9912109375
281.965,-0.92626953125
281.975,-0.751953125
281.982,-0.469482421875
281.992,-0.1412353515625
282.002,0.153564453125
282.012,0.318359375
282.022,0.23779296875
282.032,-0.10723876953125
282.042,-0.58544921875
282.052,-1.037109375
282.062,-1.3583984375
282.072,-1.4736328125
282.082,-1.337890625
282.092,-0.95703125
282.102,-0.412841796875
282.112,0.1312255859375
282.122,0.478515625
282.132,0.521484375
282.142,0.31591796875
282.152,0.012969970703125
282.162,-0.2427978515625
282.172,-0.35986328125
282.181,-0.3251953125
282.191,-0.22119140625
282.201,-0.1763916015625
282.211,-0.27783203125
282.221,-0.50732421875
282.231,-0.7548828125
282.241,-0.9248046875
282.251,-0.97412109375
282.261,-0.865234375
282.271,-0.5908203125
282.281,-0.229248046875
282.291,0.088623046875
282.301,0.247314453125
282.311,0.2003173828125
282.321,-0.00615310668945312
282.331,-0.26123046875
282.341,-0.45458984375
282.351,-0.52197265625
282.361,-0.4560546875
282.371,-0.29541015625
282.38,-0.10882568359375
282.39,0.033721923828125
282.4,0.087890625
282.41,0.048797607421875
282.42,-0.056182861328125
282.43,-0.1947021484375
282.44,-0.349853515625
282.45,-0.51171875
282.46,-0.66796875
282.47,-0.79931640625
282.48,-0.88818359375
282.49,-0.9267578125
282.5,-0.91455078125
282.51,-0.85107421875
282.52,-0.74365234375
282.53,-0.623046875
282.54,-0.53125
282.55,-0.50537109375
282.56,-0.55810546875
282.57,-0.65673828125
282.575,-0.775390625
282.585,-0.798828125
282.595,-0.8212890625
282.605,-0.83837890625
282.615,-0.8564453125
282.625,-0.87060546875
282.635,-0.853515625
282.645,-0.7880859375
282.655,-0.693359375
282.665,-0.609375
282.675,-0.56298828125
282.685,-0.55615234375
282.695,-0.58740234375
282.705,-0.66162109375
282.715,-0.77490234375
282.725,-0.90283203125
282.732,-1.0166015625
282.742,-1.095703125
282.752,-1.12109375
282.762,-1.0888671875
282.772,-1.015625
282.782,-0.92138671875
282.792,-0.8291015625
282.802,-0.7705078125
282.812,-0.76123046875
282.822,-0.79541015625
282.832,-0.857421875
282.842,-0.93310546875
282.852,-1.0009765625
282.862,-1.0419921875
282.872,-1.0478515625
282.882,-1.0185546875
282.892,-0.96630859375
282.902,-0.90869140625
282.912,-0.861328125
282.922,-0.8291015625
282.931,-0.810546875
282.941,-0.802734375
282.951,-0.80419921875
282.961,-0.8125
282.971,-0.8271484375
282.981,-0.845703125
282.991,-0.861328125
283.001,-0.8662109375
283.011,-0.85595703125
283.021,-0.83447265625
283.031,-0.810546875
283.041,-0.79736328125
283.051,-0.7998046875
283.061,-0.81103515625
283.071,-0.818359375
283.081,-0.8134765625
283.091,-0.7978515625
283.101,-0.78125
283.111,-0.77490234375
283.121,-0.7802734375
283.13,-0.79443359375
283.14,-0.81201171875
283.15,-0.82666015625
283.16,-0.8349609375
283.17,-0.8359375
283.18,-0.83056640625
283.19,-0.82275390625
283.2,-0.8154296875
283.21,-0.8115234375
283.22,-0.8134765625
283.23,-0.81884765625
283.24,-0.82275390625
283.25,-0.81201171875
283.26,-0.77685546875
283.27,-0.72021484375
283.28,-0.65625
283.29,-0.5986328125
283.3,-0.560546875
283.31,-0.5517578125
283.32,-0.57763671875
283.325,-0.55224609375
283.335,-0.40966796875
283.345,-0.286376953125
283.355,-0.2255859375
283.365,-0.22900390625
283.375,-0.27099609375
283.385,-0.322998046875
283.395,-0.37255859375
283.405,-0.423828125
283.415,-0.474609375
283.425,-0.50537109375
283.435,-0.5
283.445,-0.46240234375
283.455,-0.413818359375
283.465,-0.36669921875
283.475,-0.320068359375
283.482,-0.274658203125
283.492,-0.229248046875
283.502,-0.1834716796875
283.512,-0.1492919921875
283.522,-0.138916015625
283.532,-0.1517333984375
283.542,-0.182373046875
283.552,-0.2232666015625
283.562,-0.260498046875
283.572,-0.279541015625
283.582,-0.2705078125
283.592,-0.2344970703125
283.602,-0.1875
283.612,-0.150390625
283.622,-0.133056640625
283.632,-0.13525390625
283.642,-0.16162109375
283.652,-0.2178955078125
283.662,-0.29248046875
283.672,-0.36474609375
283.681,-0.42041015625
283.691,-0.45068359375
283.701,-0.4560546875
283.711,-0.4482421875
283.721,-0.43310546875
283.731,-0.40673828125
283.741,-0.36572265625
283.751,-0.30615234375
283.761,-0.224853515625
283.771,-0.1259765625
283.781,-0.02630615234375
283.791,0.050018310546875
283.801,0.08795166015625
283.811,0.096435546875
283.821,0.09197998046875
283.831,0.07952880859375
283.841,0.061614990234375
283.851,0.038360595703125
283.861,-0.00299644470214844
283.871,-0.07269287109375
283.879,-0.164794921875
283.889,-0.2646484375
283.899,-0.351806640625
283.909,-0.401611328125
283.919,-0.389892578125
283.929,-0.30712890625
283.939,-0.16845703125
283.949,-0.00309181213378906
283.959,0.1585693359375
283.969,0.281982421875
283.979,0.3271484375
283.989,0.268310546875
283.999,0.1102294921875
284.009,-0.113037109375
284.019,-0.349609375
284.029,-0.54150390625
284.039,-0.6455078125
284.049,-0.64990234375
284.059,-0.568359375
284.069,-0.41259765625
284.073,0.6474609375
284.083,0.6201171875
284.093,0.48583984375
284.103,0.28515625
284.113,0.06201171875
284.123,-0.1419677734375
284.133,-0.29638671875
284.143,-0.38720703125
284.153,-0.41162109375
284.163,-0.381591796875
284.173,-0.319580078125
284.183,-0.2412109375
284.193,-0.150146484375
284.203,-0.046417236328125
284.213,0.065673828125
284.223,0.16748046875
284.232,0.2269287109375
284.242,0.2197265625
284.252,0.1490478515625
284.262,0.03582763671875
284.272,-0.09759521484375
284.282,-0.227783203125
284.292,-0.326904296875
284.302,-0.37255859375
284.312,-0.3603515625
284.322,-0.298095703125
284.332,-0.1961669921875
284.342,-0.0740966796875
284.352,0.03692626953125
284.362,0.10882568359375
284.372,0.1279296875
284.382,0.0953369140625
284.392,0.0269927978515625
284.402,-0.0474853515625
284.412,-0.09893798828125
284.422,-0.1180419921875
284.431,-0.11285400390625
284.441,-0.09100341796875
284.451,-0.059173583984375
284.461,-0.033599853515625
284.471,-0.031219482421875
284.481,-0.048126220703125
284.491,-0.06280517578125
284.501,-0.0635986328125
284.511,-0.060302734375
284.521,-0.0677490234375
284.531,-0.08758544921875
284.541,-0.10699462890625
284.551,-0.11236572265625
284.561,-0.10052490234375
284.571,-0.076904296875
284.581,-0.04962158203125
284.591,-0.02484130859375
284.601,-0.00270652770996094
284.611,0.0233612060546875
284.621,0.055023193359375
284.629,0.0765380859375
284.639,0.06390380859375
284.649,0.00530624389648438
284.659,-0.09051513671875
284.669,-0.2000732421875
284.679,-0.30029296875
284.689,-0.3720703125
284.699,-0.392333984375
284.709,-0.3505859375
284.719,-0.260009765625
284.729,-0.1456298828125
284.739,-0.0294189453125
284.749,0.07379150390625
284.759,0.1556396484375
284.769,0.2054443359375
284.779,0.2115478515625
284.789,0.17529296875
284.799,0.1102294921875
284.809,0.0262908935546875
284.819,-0.0743408203125
284.824,-0.3125
284.834,-0.22705078125
284.844,-0.12225341796875
284.854,-0.0240936279296875
284.864,0.04833984375
284.874,0.08447265625
284.884,0.0823974609375
284.894,0.04931640625
284.904,-0.00432586669921875
284.914,-0.0711669921875
284.924,-0.143310546875
284.934,-0.20751953125
284.944,-0.247314453125
284.954,-0.2457275390625
284.964,-0.192626953125
284.974,-0.09918212890625
284.982,0.00113868713378906
284.992,0.07568359375
285.002,0.11175537109375
285.012,0.11517333984375
285.022,0.091796875
285.032,0.0361328125
285.042,-0.052001953125
285.052,-0.149169921875
285.062,-0.222412109375
285.072,-0.2587890625
285.082,-0.272216796875
285.092,-0.274658203125
285.102,-0.25537109375
285.112,-0.2021484375
285.122,-0.12164306640625
285.132,-0.03643798828125
285.142,0.0285491943359375
285.152,0.056732177734375
285.162,0.046417236328125
285.172,0.00909423828125
285.181,-0.03973388671875
285.191,-0.08612060546875
285.201,-0.11871337890625
285.211,-0.13134765625
285.221,-0.11968994140625
285.231,-0.07525634765625
285.241,0.00513076782226562
285.251,0.10906982421875
285.261,0.2083740234375
285.271,0.2486572265625
285.281,0.1539306640625
285.291,-0.1109619140625
285.301,-0.47509765625
285.311,-0.79541015625
285.321,-0.98046875
285.331,-1.072265625
285.341,-1.1767578125
285.351,-1.328125
285.361,-1.4306640625
285.371,-1.3330078125
285.379,-0.9638671875
285.389,-0.407470703125
285.399,0.11810302734375
285.409,0.41748046875
285.419,0.47412109375
285.429,0.43701171875
285.439,0.46337890625
285.449,0.60400390625
285.459,0.79296875
285.469,0.89306640625
285.479,0.78662109375
285.489,0.457763671875
285.499,0.0117568969726562
285.509,-0.385498046875
285.519,-0.60498046875
285.529,-0.65087890625
285.539,-0.640625
285.549,-0.6728515625
285.559,-0.7421875
285.569,-0.78759765625
285.573,-1.3447265625
285.583,-1.3203125
