Time,GyroX
238.502,24.5300006866455
238.512,2.66000008583069
238.522,-0.590000033378601
238.53,30.1700019836426
238.54,25.5800018310547
238.55,3.53000020980835
238.56,7.80000019073486
238.57,-18.9300003051758
238.58,-8.85000038146973
238.59,30.310001373291
238.6,12.5600004196167
238.61,5.21000003814697
238.62,7.14000034332275
238.63,-2.97000002861023
238.64,8.40000057220459
238.65,22.0800018310547
238.66,-4.37000036239624
238.67,-10.8800001144409
238.68,-23.6200008392334
238.69,-5.95000028610229
238.7,19.8400001525879
238.71,10.9200000762939
238.72,14.2800006866455
238.729,5.53000020980835
238.739,28.1000003814697
238.749,39.6900024414062
238.759,1.50000011920929
238.769,15.6100006103516
238.779,33.6000022888184
238.789,18.480001449585
238.799,26.9100017547607
238.809,2.48000001907349
238.819,-15.0500011444092
238.829,18.3400001525879
238.839,29.2200012207031
238.849,8.05000019073486
238.859,-1.54000008106232
238.869,-26.4200019836426
238.879,-19.1400012969971
238.889,-1.00999999046326
238.899,27.8900012969971
238.909,1.12000000476837
238.919,-32.3400001525879
238.924,-12.4900007247925
238.934,0.590000033378601
238.944,47.0400009155273
238.954,25.0900020599365
238.964,6.02000045776367
238.974,5.42000007629395
238.984,16.2400016784668
238.994,44.310001373291
239.004,4.90000009536743
239.014,-27.6100006103516
239.024,-28.1400012969971
239.034,-17.5700016021729
239.044,-4.41000032424927
239.054,27.1600017547607
239.064,8.85000038146973
239.074,8.85000038146973
239.082,3.15000009536743
239.092,13.1600008010864
239.102,38.8800010681152
239.112,21.4200000762939
239.122,-8.05000019073486
239.132,32.7200012207031
239.142,11.1300001144409
239.152,6.19000005722046
239.162,31.5000019073486
239.172,-0.660000026226044
239.182,19.25
239.192,20.1600017547607
239.202,0.980000019073486
239.212,19.2800006866455
239.222,11.1600008010864
239.232,-8.5
239.242,3.81000018119812
239.252,-10.0400009155273
239.262,10.1100006103516
239.272,0.350000023841858
239.28,19.7400016784668
239.29,25.2700004577637
239.3,33.6700019836426
239.31,34.370002746582
239.32,53.5500030517578
239.33,10.1500005722046
239.34,11.9000005722046
239.35,43.0100021362305
239.36,39.3000030517578
239.37,41.7900009155273
239.38,18.9300003051758
239.39,-15.2600011825562
239.4,-2.20000004768372
239.41,1.82000005245209
239.42,25.0200004577637
239.43,7.52000045776367
239.44,1.33000004291534
239.45,29.7100009918213
239.46,60.8300018310547
239.47,52.6000022888184
239.479,14.3800010681152
239.489,0.0300000011920929
239.499,2.03000020980835
239.509,10.9200000762939
239.519,-10.1800003051758
239.529,-23.6600017547607
239.539,-20.6500015258789
239.549,-3.60000014305115
239.559,27.3300018310547
239.569,34.75
239.579,52.3200035095215
239.589,64.6800003051758
239.599,75.5300064086914
239.609,65.9400024414062
239.619,68.390007019043
239.629,67.1300048828125
239.639,16.7600002288818
239.649,-19.980001449585
239.659,-19.8400001525879
239.669,-36.9900016784668
239.673,27.7500019073486
239.683,51.060001373291
239.693,53.9000015258789
239.703,30.6900005340576
239.713,27.5100021362305
239.723,30.480001449585
239.733,10.2200002670288
239.743,6.40000009536743
239.753,-7.21000051498413
239.763,-21.2100009918213
239.773,22.3600006103516
239.783,37.1700019836426
239.793,65.0600051879883
239.803,60.620002746582
239.813,31.6400012969971
239.823,39.3400001525879
239.832,11.9700002670288
239.842,-30.2700023651123
239.852,-24.1800003051758
239.862,-26.8800010681152
239.872,-0.560000002384186
239.882,28.9100017547607
239.892,42.0000038146973
239.902,86.7300033569336
239.912,90.4000015258789
239.922,90.6500015258789
239.932,125.190002441406
239.942,116.690002441406
239.952,90.3000030517578
239.962,80.6700057983398
239.972,36.5400009155273
239.982,-16.7600002288818
239.992,-42.0700035095215
240.002,-109.970008850098
240.012,-116.410003662109
240.022,-121.480003356934
240.03,-140.310012817383
240.04,-102.060005187988
240.05,-54.4600028991699
240.06,-12.1100006103516
240.07,39.370002746582
240.08,53.7200012207031
240.09,66.1800003051758
240.1,59.7100028991699
240.11,17.8800010681152
240.12,10.0400009155273
240.13,-15.1200008392334
240.14,-19.560001373291
240.15,-2.38000011444092
240.16,-10.0100002288818
240.17,4.26999998092651
240.18,41.0900001525879
240.19,47.3200035095215
240.2,102.230003356934
240.21,115.250007629395
240.22,95.9700012207031
240.229,91.870002746582
240.239,79.4800033569336
240.249,50.680004119873
240.259,49.8400039672852
240.269,4.83000040054321
240.279,-18.8300018310547
240.289,-6.16000032424927
240.299,-27.4400005340576
240.309,-14.4200010299683
240.319,-47.8800010681152
240.329,-79.3100051879883
240.339,-58.3800010681152
240.349,-68.7700042724609
240.359,-59.5700035095215
240.369,-35.9099998474121
240.379,-18.6900005340576
240.389,18.4100017547607
240.399,51.620002746582
240.409,57.6400032043457
240.419,49.3500022888184
240.424,-9.41000080108643
240.434,-14.3500003814697
240.444,-11.5100002288818
240.454,1.78000009059906
240.464,21.0700016021729
240.474,33
240.484,40.0700035095215
240.494,47.7000007629395
240.504,63.870002746582
240.514,82.9500045776367
240.524,112.870002746582
240.534,139.440002441406
240.544,168.980010986328
240.554,182.59001159668
240.564,172.650009155273
240.574,167.610000610352
240.581,144.020004272461
240.591,72.6600036621094
240.601,21.8000011444092
240.611,-34.9300003051758
240.621,-98.3500061035156
240.631,-116.270004272461
240.641,-147.139999389648
240.651,-145.070007324219
240.661,-107.240005493164
240.671,-41.5400009155273
240.681,51.6600036621094
240.691,125.230003356934
240.701,153.09001159668
240.711,182.030014038086
240.721,186.230010986328
240.731,176.080001831055
240.741,152
240.751,48.9600028991699
240.761,-52.9500007629395
240.771,-70.5900039672852
240.78,-129.529998779297
240.79,-150.850006103516
240.8,-143.360000610352
240.81,-186.580001831055
240.82,-154.940002441406
240.83,-116.410003662109
240.84,-101.810005187988
240.85,-76.7200012207031
240.86,-45.6700019836426
240.87,-22.0100002288818
240.88,20.5400009155273
240.89,63.9400024414062
240.9,95.9700012207031
240.91,121.800003051758
240.92,132.300003051758
240.93,141.330001831055
240.94,137.09001159668
240.95,143.220001220703
240.96,156.310012817383
240.97,129.150009155273
240.979,58.620002746582
240.989,1.00999999046326
240.999,-83.3000030517578
241.009,-129.320007324219
241.019,-124.67000579834
241.029,-140.420013427734
241.039,-99.1900024414062
241.049,-28.730001449585
241.059,3.29000020027161
241.069,24.0800018310547
241.079,31.6400012969971
241.089,30.060001373291
241.099,38.25
241.109,10.1100006103516
241.119,-13.9300003051758
241.129,-11.4100008010864
241.139,15.7500009536743
241.149,71.1900024414062
241.159,123.650009155273
241.169,153.050003051758
241.174,75.390007019043
241.184,26.4600009918213
241.194,11.6200008392334
241.204,-5.8100004196167
241.214,-9.41000080108643
241.224,-9.13000011444092
241.234,-5.67000007629395
241.244,21.7700004577637
241.254,59.5000038146973
241.264,76.75
241.274,100.690002441406
241.284,103.460006713867
241.294,101.500007629395
241.304,82.140007019043
241.314,54.180004119873
241.324,22.5000019073486
241.331,-5.25000047683716
241.341,-41.2300033569336
241.351,-73.640007019043
241.361,-85.3300018310547
241.371,-94.5300064086914
241.381,-72.5500030517578
241.391,-35.3500022888184
241.401,2.03000020980835
241.411,58.7300033569336
241.421,102.970001220703
241.431,144.790008544922
241.441,171.360000610352
241.451,169.920013427734
241.461,127.820007324219
241.471,69.7200012207031
241.481,-16.1000003814697
241.491,-159.110000610352
241.501,-267.190002441406
241.511,-284.620025634766
241.521,-230.330017089844
241.53,-149.170013427734
241.54,-19.1800003051758
241.55,76.3300018310547
241.56,155.570007324219
241.57,225.050018310547
241.58,237.050018310547
241.59,262.600006103516
241.6,310.970001220703
241.61,302.400024414062
241.62,239.890014648438
241.63,123.200004577637
241.64,11.5500001907349
241.65,-8.85000038146973
241.66,-38.6400032043457
241.67,-58.4500045776367
241.68,-66.8500061035156
241.69,-75.5300064086914
241.7,-50.0100021362305
241.71,-12.3500003814697
241.72,-54.6000022888184
241.729,-81.8600006103516
241.739,-74.0200042724609
241.749,-43.6800003051758
241.759,-34.9600028991699
241.769,-54.6000022888184
241.779,-60.5100021362305
241.789,-53.2700042724609
241.799,-40.9100036621094
241.809,-17.5300006866455
241.819,8.28999996185303
241.829,43.0500030517578
241.839,81.620002746582
241.849,99.3300018310547
241.859,100.800003051758
241.869,83.9600067138672
241.879,51.8000030517578
241.889,15.0100011825562
241.899,-43.9600028991699
241.909,-114.270004272461
241.919,-132.540008544922
241.924,-7.49000024795532
241.934,13.5800008773804
241.944,36.120002746582
241.954,63.1400032043457
241.964,88.2000045776367
241.974,97.0200042724609
241.984,102.790008544922
241.994,106.92000579834
242.004,114.76000213623
242.014,125.890007019043
242.024,129.18000793457
242.034,135.760009765625
242.044,149.870010375977
242.054,126.910003662109
242.064,97.120002746582
242.074,59.3600044250488
242.081,2.24000000953674
242.091,-41.6500015258789
242.101,-41.6800003051758
242.111,-8.78000068664551
242.121,-5.77000045776367
242.131,-10.7800006866455
242.141,-1.75000011920929
242.151,-0.800000011920929
242.161,29.9900016784668
242.171,23.9000015258789
242.181,-36.0800018310547
242.191,-124.18000793457
242.201,-193.550003051758
242.211,-203.000015258789
242.221,-190.820007324219
242.231,-144.550003051758
242.241,-98.3500061035156
242.251,-3.1800000667572
242.261,79.9400024414062
242.271,139.230010986328
242.28,168.980010986328
242.29,202.020004272461
242.3,191.550003051758
242.31,170.830001831055
242.32,148.990005493164
242.33,116.790008544922
242.34,78.1900024414062
242.35,49.9100036621094
242.36,6.51000022888184
242.37,-47.7400016784668
242.38,-74.7200012207031
242.39,-77.4900054931641
242.4,-104.300003051758
242.41,-74.0600051879883
242.42,-25.7200012207031
242.43,-10.3900003433228
242.44,-19.980001449585
242.45,-27.7200012207031
242.46,-52.0800018310547
242.47,-60.620002746582
242.479,-64.3300018310547
242.489,-74.9300003051758
242.499,-58.1000022888184
242.509,-20.4700012207031
242.519,13.4400005340576
242.529,61.2500038146973
242.539,115.250007629395
242.549,116.900009155273
242.559,137.020004272461
242.569,153.330001831055
242.579,153.050003051758
242.589,132.09001159668
242.599,88.370002746582
242.609,28.1700019836426
242.619,-11.2700004577637
242.629,-30.4500007629395
242.639,-50.9600028991699
242.649,-73.7100067138672
242.659,-60.8300018310547
242.669,-40.3500022888184
242.674,90.7900009155273
242.684,69.9300003051758
242.694,37.2000007629395
242.704,14.3500003814697
242.714,-2.20000004768372
242.724,-11.9000005722046
242.734,-22.9600009918213
242.744,-40.0700035095215
242.754,-31.0800018310547
242.764,-13.7900009155273
242.774,-8.15000057220459
242.784,3.3600001335144
242.794,3.01000022888184
242.804,-6.79000043869019
242.814,-2.69000005722046
242.824,2.34000015258789
242.831,20.230001449585
242.841,17.4300003051758
242.851,-14.3800010681152
242.861,-29.1900005340576
242.871,-23.1700019836426
242.881,-9.66000080108643
242.891,-7.14000034332275
242.901,-16.1000003814697
242.911,3.01000022888184
242.921,41.9300003051758
242.931,59.0100021362305
242.941,69.5800018310547
242.951,79.3400039672852
242.961,80.7800064086914
242.971,57.5400009155273
242.981,11.3000001907349
242.991,-35.6599998474121
243.001,-32.9300003051758
243.011,-15.7800006866455
243.021,-2.10000014305115
243.03,-8.82000064849854
243.04,-6.8600001335144
243.05,22.4300003051758
243.06,29.7100009918213
243.07,30.0300006866455
243.08,21.2100009918213
243.09,-17.7100009918213
243.1,-24.4600009918213
243.11,-12.9800004959106
243.12,-36.6100006103516
243.13,-42.310001373291
243.14,-20.5400009155273
243.15,0.660000026226044
243.16,39.0900001525879
243.17,34.3300018310547
243.18,4.09000015258789
243.19,28.9100017547607
243.2,40.1800003051758
243.21,38.3200035095215
243.22,24.3900012969971
243.229,4.13000011444092
243.239,-2.97000002861023
243.249,-3.3600001335144
243.259,17.4300003051758
243.269,25.9000015258789
243.279,-19.560001373291
243.289,-4.65000009536743
243.299,22.6400012969971
243.309,-3.29000020027161
243.319,-16.6900005340576
243.329,-1.75000011920929
243.339,24.1500015258789
243.349,26.3900012969971
243.359,21.0300006866455
243.369,4.55000019073486
243.379,28.3800010681152
243.389,25.8600006103516
243.399,31.2200012207031
243.409,17.810001373291
243.419,16.1700000762939
243.424,4.34000015258789
243.434,-63.0700035095215
243.444,-40.6300010681152
243.454,-37.060001373291
243.464,19.4900016784668
243.474,-3.15000009536743
243.484,-35.3500022888184
243.494,39.5800018310547
243.504,58.7300033569336
243.514,31.8800010681152
243.524,12.0700006484985
243.534,12.0700006484985
243.544,8.15000057220459
243.554,7.1700005531311
243.564,-11.6900005340576
243.574,1.99000012874603
243.581,-9.17000007629395
243.591,-26.6700019836426
243.601,7.91000032424927
243.611,7.84000015258789
243.621,0.310000002384186
243.631,-11.2000007629395
243.641,-13.3300008773804
243.651,64.5
243.661,48.0500030517578
243.671,-24.6700019836426
243.681,4.97000026702881
243.691,11.6500005722046
243.701,12.6300010681152
243.711,24.0400009155273
243.721,-14.3500003814697
243.731,-6.8600001335144
243.741,33.560001373291
243.751,16.2000007629395
243.761,6.33000040054321
243.771,-13.1600008010864
243.78,-15.9200010299683
243.79,9.41000080108643
243.8,-3.78000020980835
243.81,-10.9200000762939
243.82,-2.03000020980835
243.83,6.8600001335144
243.84,17.9900016784668
243.85,28.2800006866455
243.86,19.1100006103516
243.87,7.80000019073486
243.88,-1.26000010967255
243.89,2.03000020980835
243.9,22.2200012207031
243.91,15.2600011825562
243.92,23.6600017547607
243.93,22.0500011444092
243.94,17.1500015258789
243.95,10.5300006866455
243.96,-1.64000010490417
243.97,21.8700008392334
243.979,22.1500015258789
243.989,-8.64000034332275
243.999,13.0500001907349
244.009,24.810001373291
244.019,29.3300018310547
244.029,17.7400016784668
244.039,14.2800006866455
244.049,14.4500007629395
244.059,7.87000036239624
244.069,-11.5100002288818
244.079,0.240000009536743
244.089,11.1300001144409
244.099,26.6700019836426
244.109,28.7000007629395
244.119,38.7800025939941
244.129,41.0500030517578
244.139,39.370002746582
244.149,42.870002746582
244.159,23.6200008392334
244.169,-5.63000011444092
244.174,25.9700012207031
244.184,19.2800006866455
244.194,37.310001373291
244.204,10.0400009155273
244.214,9.59000015258789
244.224,-3.85000014305115
244.234,-22.8500003814697
244.244,1.82000005245209
244.254,4.37000036239624
244.264,19.4900016784668
244.274,43.3300018310547
244.284,71.6800003051758
244.294,74.4400024414062
244.304,100.380004882812
244.314,81.620002746582
244.324,93.2700042724609
244.331,66.1500015258789
244.341,47.0000038146973
244.351,12.3500003814697
244.361,-27.6500015258789
244.371,-55.0200042724609
244.381,-59.2200012207031
244.391,-71.6800003051758
244.401,-71.0500030517578
244.411,-23.8300018310547
244.421,-1.50000011920929
244.431,38.9200019836426
244.441,58.5200042724609
244.451,87.8100051879883
244.461,98.6600036621094
244.471,91.2400054931641
244.481,90.0500030517578
244.491,74.0200042724609
244.501,62.370002746582
244.511,47.9100036621094
244.521,30.7600021362305
244.53,-7.73000049591064
244.54,6.72000026702881
244.55,-40.7000007629395
244.56,-59.5300025939941
244.57,-84.870002746582
244.58,-120.120002746582
244.59,-110.880004882812
244.6,-91.7300033569336
244.61,-83.4700012207031
244.62,-52.8800010681152
244.63,4.41000032424927
244.64,36.9900016784668
244.65,95.2300033569336
244.66,105.210006713867
244.67,106.850006103516
244.68,113.500007629395
244.69,99.7100067138672
244.7,91.5600051879883
244.71,80.8500061035156
244.72,63.2100028991699
244.725,1.96000003814697
244.735,-14.5600004196167
244.745,-21.3800010681152
244.755,-39.5500030517578
244.765,-31.5000019073486
244.775,-19.2100009918213
244.785,-4.90000009536743
244.795,26.980001449585
244.805,47.4600028991699
244.815,59.5000038146973
244.825,55.0900039672852
244.835,44.2700004577637
244.845,41.5100021362305
244.855,41.1600036621094
244.865,22.9200019836426
244.875,35.3500022888184
244.882,7.28000020980835
244.892,-13.4700002670288
244.902,19.1400012969971
244.912,0.100000001490116
244.922,-19.0700016021729
244.932,2.24000000953674
244.942,-32.3400001525879
244.952,-51.3400039672852
244.962,-27.5100021362305
244.972,-50.9900016784668
244.982,-43.6100006103516
244.992,-31.1100006103516
245.002,-38.2200012207031
245.012,-7.03000020980835
245.022,5.1100001335144
245.032,43.3600006103516
245.042,85.1500015258789
245.052,106.050003051758
245.062,146.120010375977
245.072,154.630004882812
245.081,133.940002441406
245.091,126.450004577637
245.101,78.1900024414062
245.111,33.7700004577637
245.121,11.8600006103516
245.131,-63.8000030517578
245.141,-117.000007629395
245.151,-148.920013427734
245.161,-189.730010986328
245.171,-191.380004882812
245.181,-171.570007324219
245.191,-131.18000793457
245.201,-73.3600006103516
245.211,-26.560001373291
245.221,4.97000026702881
245.231,33.9099998474121
245.241,38.5
245.251,49.310001373291
245.261,49.2800025939941
245.271,26.0700016021729
245.28,11.2700004577637
245.29,1.6100001335144
245.3,-16.1000003814697
245.31,-18.8600006103516
245.32,-37.9400024414062
245.33,-78.8500061035156
245.34,-107.620002746582
245.35,-148.290008544922
245.36,-202.960006713867
245.37,-249.09001159668
245.38,-290.220001220703
245.39,-299.070007324219
245.4,-255.710006713867
245.41,-183.820007324219
245.42,-85.0500030517578
245.43,10.1100006103516
245.44,90.0200042724609
245.45,165.270004272461
245.46,210.520004272461
245.47,217.660003662109
245.475,-3.60000014305115
245.485,-61.2100028991699
245.495,-91.5900039672852
245.505,-90.6100006103516
245.515,-85.120002746582
245.525,-45.2200012207031
245.535,10.5700006484985
245.545,57.5700035095215
245.555,120.610008239746
245.565,197.920013427734
245.575,263.550018310547
245.585,331.060028076172
245.595,397.560028076172
245.605,457.730010986328
245.615,517.860046386719
245.625,551.210021972656
245.632,550.970031738281
245.642,529.410034179688
245.652,486.530029296875
245.662,454.890014648438
245.672,382.130004882812
245.682,300.890014648438
245.692,237.68000793457
245.702,159.670013427734
245.712,93.2700042724609
245.722,42.0700035095215
245.732,-12.8800010681152
245.742,-41.8600006103516
245.752,-71.2900009155273
245.762,-95.5100021362305
245.772,-130.09001159668
245.782,-168.030014038086
245.792,-182.450012207031
245.802,-188.68000793457
245.812,-154.980010986328
245.822,-103.250007629395
245.831,-49.4500007629395
245.841,3.32000017166138
245.851,28.310001373291
245.861,42.2100028991699
245.871,34.3300018310547
245.881,-6.33000040054321
245.891,-61.1400032043457
245.901,-143.360000610352
245.911,-224.910003662109
245.921,-273.350006103516
245.931,-311.180023193359
245.941,-322.980010986328
245.951,-314.160003662109
245.961,-273.140014648438
245.971,-211.43000793457
245.981,-116.76000213623
245.991,-20.0500011444092
246.001,68.7700042724609
246.011,158.300003051758
246.021,226.760009765625
246.03,269.779998779297
246.04,290.710021972656
246.05,305.760009765625
246.06,313.280029296875
246.07,321.510009765625
246.08,320.630004882812
246.09,282.410003662109
246.1,229.490005493164
246.11,161.140014648438
246.12,104.440002441406
246.13,53.4800033569336
246.14,15.5000009536743
246.15,10.2500009536743
246.16,26.0700016021729
246.17,38.0400009155273
246.18,55.8600044250488
246.19,90.8600006103516
246.2,103.560005187988
246.21,94.0800018310547
246.22,73.1100006103516
246.225,17.6700000762939
246.235,14.8700008392334
246.245,8.40000057220459
246.255,8.5
246.265,33.3199996948242
246.275,43.9200019836426
246.285,34.1900024414062
246.295,32.4800033569336
246.305,23.8300018310547
246.315,4.26999998092651
246.325,-11.4800004959106
246.335,-63.8400039672852
246.345,-107.310005187988
246.355,-136.920013427734
246.365,-169.500015258789
246.375,-205.870010375977
246.382,-230.750015258789
246.392,-244.960006713867
246.402,-238.030014038086
246.412,-212.34001159668
246.422,-193.580001831055
246.432,-171.710006713867
246.442,-128.029998779297
246.452,-58.8300018310547
246.462,7.63000059127808
246.472,71.3300018310547
246.482,141.639999389648
246.492,187.980010986328
246.502,207.580017089844
246.512,199.320007324219
246.522,155.43000793457
246.532,113.290008544922
246.542,73.6700057983398
246.552,22.0100002288818
246.562,-16.730001449585
246.572,-29.9200019836426
246.581,-16.730001449585
246.591,35.7700004577637
246.601,99.5000076293945
246.611,168.730010986328
246.621,214.020004272461
246.631,228.580017089844
246.641,248.640014648438
246.651,258.680023193359
246.661,233.830017089844
246.671,182.210006713867
246.681,119.910003662109
246.691,69.0200042724609
246.701,26.3500003814697
246.711,-18.5500011444092
246.721,-67.5100021362305
246.731,-87.0100021362305
246.741,-79.5500030517578
246.751,-77.5900039672852
246.761,-92.890007019043
246.771,-94.0800018310547
246.78,-93.1000061035156
246.79,-85.2900009155273
246.8,-87.7100067138672
246.81,-112.940002441406
246.82,-131.110000610352
246.83,-151.900009155273
246.84,-174.750015258789
246.85,-177.450012207031
246.86,-162.120010375977
246.87,-145.389999389648
246.88,-116.300003051758
246.89,-106.080001831055
246.9,-104.300003051758
246.91,-95.5100021362305
246.92,-104.190002441406
246.93,-126.280006408691
246.94,-126.000007629395
246.95,-94.4300079345703
246.96,-55.0200042724609
246.97,-26.5300006866455
246.974,86.9000015258789
246.984,98.1000061035156
246.994,113.610008239746
247.004,87.9900054931641
247.014,25.7600021362305
247.024,-0.380000025033951
247.034,-2.94000005722046
247.044,5.07000017166138
247.054,45.6700019836426
247.064,62.8900032043457
247.074,71.5699996948242
247.084,105.800003051758
247.094,146.75
247.104,188.820007324219
247.114,254.310012817383
247.124,287.070007324219
247.132,270.620025634766
247.142,265.120025634766
247.152,293.330017089844
247.162,321.190002441406
247.172,325.780029296875
247.182,322.77001953125
247.192,298.550018310547
247.202,267.540008544922
247.212,253.150009155273
247.222,197.260009765625
247.232,106.540008544922
247.242,-10.8100004196167
247.252,-126.350006103516
247.262,-168.730010986328
247.272,-199.740005493164
247.282,-251.650009155273
247.292,-267.290008544922
247.302,-257.600006103516
247.312,-182.100006103516
247.322,-80.0800018310547
247.331,-12.7700004577637
247.341,39.2300033569336
247.351,80.7100067138672
247.361,127.820007324219
247.371,179.790008544922
247.381,189.84001159668
247.391,141.080001831055
247.401,79.1000061035156
247.411,39.4400024414062
247.421,11.9000005722046
247.431,-4.30000019073486
247.441,-0.840000033378601
247.451,-20.8200016021729
247.461,-31.9500007629395
247.471,-3.71000027656555
247.481,15.8500003814697
247.491,16.480001449585
247.501,18.6200008392334
247.511,38.3200035095215
247.521,81.8600006103516
247.53,130.410003662109
247.54,158.34001159668
247.55,177.800003051758
247.56,204.150009155273
247.57,191.100006103516
247.58,139.860000610352
247.59,77.2100067138672
247.6,31.0800018310547
247.61,-5.28000020980835
247.62,-27.7900009155273
247.63,-44.1000022888184
247.64,-26.3900012969971
247.65,9.69000053405762
247.66,53.3000030517578
247.67,76.3000030517578
247.68,73.640007019043
247.69,49.1400032043457
247.7,3.85000014305115
247.71,-37.9400024414062
247.72,-106.780006408691
247.724,-157.600006103516
247.734,-80.0100021362305
247.744,-10.1100006103516
247.754,72.7300033569336
247.764,159.980010986328
247.774,211.400009155273
247.784,238.450012207031
247.794,235.410003662109
247.804,204.960006713867
247.814,180.320007324219
247.824,156.940002441406
247.834,107.690002441406
247.844,105.310005187988
247.854,113.710006713867
247.864,102.76000213623
247.874,96.8400039672852
247.882,90.370002746582
247.892,72.620002746582
247.902,53.8300018310547
247.912,19.5300006866455
247.922,-22.2200012207031
247.932,-57.7100028991699
247.942,-56.5200042724609
247.952,-35
247.962,-7.28000020980835
247.972,23.5900020599365
247.982,50.2600021362305
247.992,44.9700012207031
248.002,53.3400039672852
248.012,40
248.022,-4.48000001907349
248.032,-58.9400024414062
248.042,-99.2600021362305
248.052,-119.660003662109
248.062,-136.18000793457
248.072,-147.490005493164
248.081,-131.350006103516
248.091,-112.140007019043
248.101,-86.7600021362305
248.111,-61.6300010681152
248.121,-31.8500022888184
248.131,-7.5600004196167
248.141,6.82000017166138
248.151,27.3300018310547
248.161,50.9600028991699
248.171,50.680004119873
248.181,42.1000022888184
248.191,42.1700019836426
248.201,63.2800025939941
248.211,73.3199996948242
248.221,71.640007019043
248.231,65.6900024414062
248.241,74.6900024414062
248.251,80.1500015258789
248.261,74.4400024414062
248.271,61.2100028991699
248.28,51.9700012207031
248.29,40.3900032043457
248.3,42.7700004577637
248.31,23.4500007629395
248.32,-6.23000049591064
248.33,-34.5800018310547
248.34,-55.9600028991699
248.35,-60.1300010681152
248.36,-50.2200012207031
248.37,-47.3900032043457
248.38,-42.0000038146973
248.39,-3.92000007629395
248.4,36.9900016784668
248.41,74.2700042724609
248.42,101.150001525879
248.43,114.270004272461
248.44,128.310012817383
248.45,144.970001220703
248.46,158.650009155273
248.47,140.450012207031
248.474,-122.880004882812
248.484,-147.170013427734
248.494,-177.830001831055
248.504,-162.120010375977
248.514,-129.639999389648
248.524,-94.7800064086914
248.534,-54.4900016784668
248.544,-18.4400005340576
248.554,11.4100008010864
248.564,26.4600009918213
248.574,56.3500022888184
248.584,70.5200042724609
248.594,45.0100021362305
248.604,-1.64000010490417
248.614,-41.9600028991699
248.624,-60.930004119873
248.632,-86.0300064086914
248.642,-103.070007324219
248.652,-98.3800048828125
248.662,-77.8400039672852
248.672,-51.5200042724609
248.682,-8.75
248.692,35.6300010681152
248.702,53.6500015258789
248.712,54.8400039672852
248.722,71.3600006103516
248.732,88.4100036621094
248.742,93.2400054931641
248.752,80.8800048828125
248.762,83.120002746582
248.772,89.4200057983398
248.782,112.42000579834
248.792,128.520004272461
248.802,130.760009765625
248.812,112.490005493164
248.822,87.8100051879883
248.831,75.7700042724609
248.841,75.5300064086914
248.851,57.4700012207031
248.861,22.2200012207031
248.871,-6.79000043869019
248.881,-1.89000010490417
248.891,0.980000019073486
248.901,-6.79000043869019
248.911,-17.1800003051758
248.921,-15.1500005722046
248.931,-8.61000061035156
248.941,0.840000033378601
248.951,16.0300006866455
248.961,27.230001449585
248.971,50.2600021362305
248.981,77.0700073242188
248.991,98.5900039672852
249.001,95.6900024414062
249.011,76.8200073242188
249.021,70.9800033569336
249.029,67.5500030517578
249.039,41.5100021362305
249.049,-2.10000014305115
249.059,-46.6500015258789
249.069,-60.5100021362305
249.079,-72.620002746582
249.089,-80.0400009155273
249.099,-67.2700042724609
249.109,-42.3500022888184
249.119,-5
249.129,52.3600006103516
249.139,113.470008850098
249.149,146.860000610352
249.159,141.150009155273
249.169,146.820007324219
249.179,149.240005493164
249.189,129.360000610352
249.199,116.440002441406
249.209,120.890007019043
249.219,129.710006713867
249.224,37.2000007629395
249.234,21.310001373291
249.244,-28.8700008392334
249.254,-80.5000076293945
249.264,-100.590003967285
249.274,-102.51000213623
249.284,-83.6100006103516
249.294,-34.9300003051758
249.304,17.9900016784668
249.314,56.6300010681152
249.324,94.1800079345703
249.334,131.210006713867
249.344,143.43000793457
249.354,110.810005187988
249.364,70.5600051879883
249.374,33.1800003051758
249.382,-17.25
249.392,-66.7400054931641
249.402,-100.900001525879
249.412,-127.470008850098
249.422,-140.520004272461
249.432,-115.740005493164
249.442,-78.0500030517578
249.452,-42.4500007629395
249.462,2.76000022888184
249.472,65.5900039672852
249.482,97.7200012207031
249.492,113.960006713867
249.502,138.350006103516
249.512,130.440002441406
249.522,107.830001831055
249.532,99.2600021362305
249.542,96.390007019043
249.552,71.1900024414062
249.562,30.060001373291
249.572,-9.41000080108643
249.581,-68.1800003051758
249.591,-120.150009155273
249.601,-140.070007324219
249.611,-159.600006103516
249.621,-159.700012207031
249.631,-115.740005493164
249.641,-48.4700012207031
249.651,-8.26000022888184
249.661,4.44000005722046
249.671,46.4800033569336
249.681,72.7600021362305
249.691,68.4200057983398
249.701,74.3000030517578
249.711,58.9000015258789
249.721,28.2400016784668
249.731,23.3800010681152
249.741,15.4300003051758
249.751,-20.1600017547607
249.761,-30.310001373291
249.771,-6.09000015258789
249.779,-15.2900009155273
249.789,-38.7800025939941
249.799,-23.9400005340576
249.809,-15.8200006484985
249.819,-21.9100017547607
249.829,5.32000017166138
249.839,10.9900007247925
249.849,-19.1100006103516
249.859,-3.71000027656555
249.869,27.5100021362305
249.879,-5
249.889,-14.5600004196167
249.899,5.49000024795532
249.909,-7.03000020980835
249.919,1.54000008106232
249.929,33
249.939,2.83000016212463
249.949,-21.730001449585
249.959,7.91000032424927
249.969,-21.6300010681152
249.973,-16.480001449585
249.983,14.2100009918213
249.993,7.98000049591064
250.003,17.0100002288818
250.013,45.6400032043457
250.023,23.1700019836426
250.033,11.6200008392334
250.043,15.9900007247925
250.053,-20.9300003051758
250.063,-46.5800018310547
250.073,-36.0100021362305
250.083,-55.1900024414062
250.093,-70.7000045776367
250.103,-54.5300025939941
250.113,-61.9800033569336
250.123,-56.2400016784668
250.132,-4.83000040054321
250.142,32.060001373291
250.152,44.0300025939941
250.162,58.5900039672852
250.172,48.8600006103516
250.182,12.9500007629395
250.192,0.940000057220459
250.202,-11.5100002288818
250.212,-41.5800018310547
250.222,-40
250.232,-32.7600021362305
250.242,-38.7800025939941
250.252,-15.5700006484985
250.262,19.3900012969971
250.272,21.3800010681152
250.282,32.620002746582
250.292,37.6600036621094
250.302,7.24000024795532
250.312,-10.7800006866455
250.322,-11.2000007629395
250.331,-26.6000003814697
250.341,-9.13000011444092
250.351,9.8700008392334
250.361,3.01000022888184
250.371,-1.75000011920929
250.381,2.27000021934509
250.391,-15.1900005340576
250.401,-9.03000068664551
250.411,1.15000009536743
250.421,-5.63000011444092
250.431,19.5300006866455
250.441,49.4200019836426
250.451,61.7000045776367
250.461,89.7000045776367
250.471,94.7800064086914
250.481,87.2900009155273
250.491,85.2600021362305
250.501,58.2400016784668
250.511,17.7400016784668
250.521,-15.2200002670288
250.529,-41.9300003051758
250.539,-61.6000022888184
250.549,-47.6300010681152
250.559,-34.8600006103516
250.569,-20.7500019073486
250.579,-11.7900009155273
250.589,-14.2100009918213
250.599,-24.6400012969971
250.609,-30.7600021362305
250.619,-47.8800010681152
250.629,-76.3000030517578
250.639,-81.2700042724609
250.649,-71.2200012207031
250.659,-58.1000022888184
250.669,-42.870002746582
250.679,-29.4700012207031
250.689,-21.0700016021729
250.699,-15.5700006484985
250.709,-14.0300006866455
250.719,-30.9700012207031
250.723,23.480001449585
250.733,50.7800025939941
250.743,76.5100021362305
250.753,104.860008239746
250.763,100.270004272461
250.773,82.2500076293945
250.783,46.6900024414062
250.793,-22.7800006866455
250.803,-64.0500030517578
250.813,-79.5500030517578
250.823,-108.43000793457
250.833,-119.100006103516
250.843,-89.8400039672852
250.853,-57.7100028991699
250.863,-25.7200012207031
250.873,-3.25000023841858
250.882,0.940000057220459
250.892,-12.3200006484985
250.902,-17.1100006103516
250.912,-12.2100009918213
250.922,-43.2200012207031
250.932,-53.3400039672852
250.942,-14.1000003814697
250.952,9.41000080108643
250.962,8.68000030517578
250.972,14.7300004959106
250.982,24.7800006866455
250.992,28.310001373291
251.002,30.1700019836426
251.012,8.85000038146973
251.022,-38.0800018310547
251.032,-68.7000045776367
251.042,-98.0700073242188
251.052,-145.670013427734
251.062,-162.190002441406
251.072,-153.020004272461
251.081,-154.630004882812
251.091,-138.84001159668
251.101,-113.850006103516
251.111,-104.93000793457
251.121,-102.300003051758
251.131,-95.9700012207031
251.141,-86.0600051879883
251.151,-84.2100067138672
251.161,-63.6300048828125
251.171,-34.9300003051758
251.181,-19.6000003814697
251.191,-6.40000009536743
251.201,10.0800008773804
251.211,13.4400005340576
251.221,6.96000051498413
251.231,4.13000011444092
251.241,-2.48000001907349
251.251,-15.4000005722046
251.261,-22.7100009918213
251.271,-7.00000047683716
251.279,18.5500011444092
251.289,35.2100028991699
251.299,37.060001373291
251.309,61.5300025939941
251.319,85.640007019043
251.329,88.4400024414062
251.339,95.7200012207031
251.349,99.1900024414062
251.359,78.2900009155273
251.369,77.9800033569336
251.379,76.3300018310547
251.389,54.0400009155273
251.399,34.6500015258789
251.409,38.8800010681152
251.419,35.1000022888184
251.429,38.6700019836426
251.439,42.6600036621094
251.449,49.5900039672852
251.459,56.1000022888184
251.469,74.0200042724609
251.473,124.18000793457
251.483,65.870002746582
251.493,8.5
251.503,-50.2900009155273
251.513,-114.970008850098
251.523,-167.510009765625
251.533,-195.960006713867
251.543,-206.950012207031
251.553,-192.460006713867
251.563,-159.460006713867
251.573,-110.140007019043
251.583,-58.5500030517578
251.593,-11.3400001525879
251.603,29.4700012207031
251.613,73.0100021362305
251.623,88.9000015258789
251.632,75.3500061035156
251.642,56.1700019836426
251.652,50.680004119873
251.662,28.2400016784668
251.672,5.70000028610229
251.682,-10.9500007629395
251.692,-4.37000036239624
251.702,-11.5100002288818
251.712,-32.9300003051758
251.722,-55.2300033569336
251.732,-89.4900054931641
251.742,-143.810012817383
251.752,-215.910003662109
251.762,-265.720001220703
251.772,-298.130004882812
251.782,-319.790008544922
251.792,-334.77001953125
251.802,-298.440002441406
251.812,-221.720016479492
251.822,-148.820007324219
251.831,-66.7100067138672
251.841,17.1500015258789
251.851,88.4800033569336
251.861,141.220001220703
251.871,153.160003662109
251.881,168.210006713867
251.891,183.190002441406
251.901,164.950012207031
251.911,133.910003662109
251.921,101.320007324219
251.931,57.0800018310547
251.941,11.3400001525879
251.951,-30.5200023651123
251.961,-63.4200019836426
251.971,-51.1300010681152
251.981,-46.9700012207031
251.991,-56.3500022888184
252.001,-27.8900012969971
252.011,-4.48000001907349
252.021,31.1500015258789
252.029,94.5300064086914
252.039,153.050003051758
252.049,184.310012817383
252.059,180.250015258789
252.069,162.570007324219
252.079,146.190002441406
252.089,98.4900054931641
252.099,26.6000003814697
252.109,-46.0200004577637
252.119,-85.7500076293945
252.129,-81.5500030517578
252.139,-60.9700012207031
252.149,-58.1000022888184
252.159,-59.0400009155273
252.169,-85.5400009155273
252.179,-85.9600067138672
252.189,-63.870002746582
252.199,-36.1500015258789
252.209,-29.5700016021729
252.219,-13.6800003051758
252.224,111.300003051758
252.234,153.720001220703
252.244,174.720001220703
252.254,143.710006713867
252.264,79.620002746582
252.274,38.8500022888184
252.284,-5.35000038146973
252.294,-66.6000061035156
252.304,-133.700012207031
252.314,-179.620010375977
252.324,-216.300003051758
252.334,-253.220016479492
252.344,-280.940002441406
252.354,-310.760009765625
252.364,-327.070007324219
252.374,-336.450012207031
252.382,-324.940002441406
252.392,-298.340026855469
252.402,-259.660003662109
252.412,-197.120010375977
252.422,-93.3400039672852
252.432,42.9100036621094
252.442,162.820007324219
252.452,222.000015258789
252.462,253.640014648438
252.472,251.580017089844
252.482,203.770004272461
252.492,102.550003051758
252.502,-9.41000080108643
252.512,-113.01000213623
252.522,-199.390014648438
252.532,-240.450012207031
252.542,-289.830017089844
252.552,-334.390014648438
252.562,-312.860015869141
252.572,-234.500015258789
252.581,-121.380004882812
252.591,-9.3100004196167
252.601,99.7500076293945
252.611,196.280014038086
252.621,308.840026855469
252.631,370.960021972656
252.641,373.830017089844
252.651,376.980010986328
252.661,374.600006103516
252.671,348.110015869141
252.681,298.340026855469
252.691,217.700012207031
252.701,123.580009460449
252.711,43.0100021362305
252.721,-22.0800018310547
252.731,-37.7600021362305
252.741,-45.8800010681152
252.751,-76.0500030517578
252.761,-109.970008850098
252.771,-109.580001831055
252.779,-120.820007324219
252.789,-139.720001220703
252.799,-147.380004882812
252.809,-152
252.819,-128.410003662109
252.829,-35.2100028991699
252.839,59.6700019836426
252.849,81.0600051879883
252.859,63.3800048828125
252.869,100.590003967285
252.879,159.390014648438
252.889,185.850006103516
252.899,183.750015258789
252.909,169.220001220703
252.919,122.67000579834
252.929,61.2500038146973
252.939,-1.40000009536743
252.949,-46.2700004577637
252.959,-114.800003051758
252.969,-172.160003662109
252.973,-275.340026855469
252.983,-239.990005493164
252.993,-165.690002441406
253.003,-84.140007019043
253.013,-11.2300004959106
253.023,7.87000036239624
253.033,12.7000007629395
253.043,5.8100004196167
253.053,19.6700000762939
253.063,19.8800010681152
253.073,-11.8600006103516
253.083,-25.8300018310547
253.093,-38.0400009155273
253.103,-40.4900016784668
253.113,-25.7900009155273
253.123,-25.6200008392334
253.132,-37.3400001525879
253.142,-16.5200004577637
253.152,8.5
253.162,35.9099998474121
253.172,47.0400009155273
253.182,30.9700012207031
253.192,46.930004119873
253.202,92.8500061035156
253.212,111.68000793457
253.222,122.390007019043
253.232,120.610008239746
253.242,104.68000793457
253.252,71.120002746582
253.262,29.3300018310547
253.272,-13.0900001525879
253.282,-61.3900032043457
253.292,-110.320007324219
253.302,-142.34001159668
253.312,-154.980010986328
253.322,-142.870010375977
253.33,-108.290008544922
253.34,-67.3000030517578
253.35,-40.2800025939941
253.36,-23.9700012207031
253.37,11.9300003051758
253.38,33.25
253.39,27.6100006103516
253.4,26.980001449585
253.41,14.1000003814697
253.42,3.60000014305115
253.43,-14.5600004196167
253.44,-20.0200004577637
253.45,-0.350000023841858
253.46,8.05000019073486
253.47,10.9500007629395
253.48,28.3500022888184
253.49,30.8300018310547
253.5,27.0200004577637
253.51,34.4700012207031
253.52,37.5900001525879
253.529,32.5500030517578
253.539,27.8900012969971
253.549,47.0400009155273
253.559,57.9200019836426
253.569,45.3200035095215
253.579,32.1599998474121
253.589,24.2500019073486
253.599,12.2500009536743
253.609,9.80000019073486
253.619,19.0400009155273
253.629,29.6400012969971
253.639,51.2000007629395
253.649,77.1000061035156
253.659,-8.68000030517578
253.669,-125.020004272461
253.679,-142.940002441406
253.689,-84.9800033569336
253.699,-67.3000030517578
253.709,-52.2900009155273
253.719,-49.2400016784668
253.723,52.0400009155273
253.733,68.7400054931641
253.743,33.7000007629395
253.753,-19.2100009918213
253.763,-29.9600009918213
253.773,-36.6100006103516
253.783,-45.0800018310547
253.793,-23.8700008392334
253.803,-39.9700012207031
253.813,-43.8500022888184
253.823,-39.3400001525879
253.833,-8.68000030517578
253.843,17.1800003051758
253.853,-0.170000001788139
253.863,-24.6000003814697
253.873,-35.9800033569336
253.882,-45.4600028991699
253.892,-83.3300018310547
253.902,-138
253.912,-143.990005493164
253.922,-124.980003356934
253.932,-119.520004272461
253.942,-83.4400024414062
253.952,-51.060001373291
253.962,-15.7500009536743
253.972,52.6000022888184
253.982,107.030006408691
253.992,104.050003051758
254.002,84.870002746582
254.012,89.7000045776367
254.022,122.950004577637
254.032,161.980010986328
254.042,142.730010986328
254.052,89.0400009155273
254.062,87.640007019043
254.072,198.270004272461
254.08,321.090026855469
254.09,316.680023193359
254.1,290.180023193359
254.11,254.970016479492
254.12,265.610015869141
254.13,283.180023193359
254.14,212.130004882812
254.15,122.080009460449
254.16,64.7800064086914
254.17,-14.5600004196167
254.18,-59.0800018310547
254.19,-100.900001525879
254.2,-140.210006713867
254.21,-145.040008544922
254.22,-107.310005187988
254.23,-60.7900047302246
254.24,-49.5900039672852
254.25,-20.6100006103516
254.26,14.1000003814697
254.27,31.3600006103516
254.279,42.6600036621094
254.289,32.8600006103516
254.299,-7.94000053405762
254.309,-35.310001373291
254.319,-52.2900009155273
254.329,-56.7300033569336
254.339,-58.2700042724609
254.349,-49.5900039672852
254.359,-37.7300033569336
254.369,-21.4500007629395
254.379,-10.0100002288818
254.389,-3.67000007629395
254.399,11.5100002288818
254.409,31.7400016784668
254.419,24.9900016784668
254.429,15.7800006866455
254.439,9.97000026702881
254.449,18.7200012207031
254.459,25.6500015258789
254.469,21.0000019073486
254.473,42.7000007629395
254.483,38.6000022888184
254.493,41.370002746582
254.503,43.2200012207031
254.513,24.6000003814697
254.523,7.80000019073486
254.533,-1.26000010967255
254.543,-16.0300006866455
254.553,-16.9000015258789
254.563,-9.76000022888184
254.573,-16.8000011444092
254.583,-8.28999996185303
254.593,4.0600004196167
254.603,18.3700008392334
254.613,25.480001449585
254.623,49.7300033569336
254.632,62.7500038146973
254.642,62.2600021362305
254.652,68
254.662,65.9000015258789
254.672,55.8900032043457
254.682,50.8200035095215
254.692,32.6900024414062
254.702,5.07000017166138
254.712,-3.60000014305115
254.722,-6.51000022888184
254.732,-19.1400012969971
254.742,-24.1100006103516
254.752,-20.6100006103516
254.762,-23.2000007629395
254.772,-13.2300004959106
254.782,4.13000011444092
254.792,10.2500009536743
254.802,11.8600006103516
254.812,21.2800006866455
254.822,23.9400005340576
254.83,25.7900009155273
254.84,28.5200004577637
254.85,23.3400020599365
254.86,18.8300018310547
254.87,21.5900001525879
254.88,21.1700000762939
254.89,14.8400011062622
254.9,12.8800010681152
254.91,7.98000049591064
254.92,-4.83000040054321
254.93,-24.4300003051758
254.94,-35.9800033569336
254.95,-53.3400039672852
254.96,-54.180004119873
254.97,-37.5500030517578
254.98,-31.8800010681152
254.99,-17.810001373291
255,10.8800001144409
255.01,29.2600021362305
255.02,46.8300018310547
255.029,68.8800048828125
255.039,54.7700042724609
255.049,42.3800010681152
255.059,41.3000030517578
255.069,28.0700016021729
255.079,14.5600004196167
255.089,-1.26000010967255
255.099,-17.6400012969971
255.109,-27.3700008392334
255.119,-15.2200002670288
255.129,-12.1800003051758
255.139,-17.0100002288818
255.149,-5.07000017166138
255.159,0.100000001490116
255.169,-1.54000008106232
255.179,11.3000001907349
255.189,7.21000051498413
255.199,0.0700000002980232
255.209,6.8600001335144
255.219,1.05000007152557
255.223,2.87000012397766
255.233,-0.450000017881393
255.243,-12.3900003433228
255.253,1.89000010490417
255.263,18.6200008392334
255.273,9.80000019073486
255.283,13.0900001525879
255.293,6.37000036239624
255.303,-2.87000012397766
255.313,9.10000038146973
255.323,1.50000011920929
255.333,-16.1300010681152
255.343,-10.1500005722046
255.353,-12.9100008010864
255.363,-24.6400012969971
255.373,-12.8400001525879
255.382,-10.6400003433228
255.392,-12.6300010681152
255.402,-0.100000001490116
255.412,-4.65000009536743
255.422,-20.6500015258789
255.432,-8.43000030517578
255.442,-14.2100009918213
255.452,-29.8500022888184
255.462,-16.5500011444092
255.472,-9.94000053405762
255.482,-4.65000009536743
255.492,10.8800001144409
255.502,8.71000003814697
255.512,9.34000015258789
255.522,15.4000005722046
255.532,-2.17000007629395
255.542,-10.7400007247925
255.552,-5.39000034332275
255.562,-24.0400009155273
255.572,-33.7000007629395
255.58,-18.5500011444092
255.59,-25.1600017547607
255.6,-17.7800006866455
255.61,4.16000032424927
255.62,-1.26000010967255
255.63,4.83000040054321
255.64,21.1400012969971
255.65,10.460000038147
255.66,-6.09000015258789
255.67,-3.53000020980835
255.68,-10.5300006866455
255.69,-4.58000040054321
255.7,4.76000022888184
255.71,-6.16000032424927
255.72,-0.770000040531158
255.73,5.32000017166138
255.74,-0.770000040531158
255.75,10.9200000762939
255.76,22.8500003814697
255.77,14.8400011062622
255.779,13.9600009918213
255.789,-1.6100001335144
255.799,-27.6800022125244
255.809,-33.9099998474121
255.819,-35.7700004577637
255.829,-29.7800006866455
255.839,-11.7600002288818
255.849,-5.84000015258789
255.859,15.9200010299683
255.869,34.8600006103516
255.879,37.6900024414062
255.889,43.0800018310547
255.899,46.5800018310547
255.909,32.6500015258789
255.919,25.0200004577637
255.929,12.7400007247925
255.939,-6.37000036239624
255.949,-7.70000028610229
255.959,-4.51000022888184
255.969,6.8600001335144
255.973,35.2800025939941
255.983,28.8700008392334
255.993,22.2600002288818
256.003,-0.870000064373016
256.013,-11.0900001525879
256.023,-18.3700008392334
256.033,-29.9200019836426
256.043,-25.6200008392334
256.053,-12.9100008010864
256.063,-23.8700008392334
256.073,-13.8200006484985
256.083,-3.50000023841858
256.093,-11.4400005340576
256.103,-17.5300006866455
256.113,-31.7800006866455
256.123,-64.2900009155273
256.132,-71.5
256.142,-75.7400054931641
256.152,-93.620002746582
256.162,-75.7400054931641
256.172,-47.7400016784668
256.182,-45.3200035095215
256.192,-24.810001373291
256.202,-5.14000034332275
256.212,-19.6000003814697
256.222,-8.99000072479248
256.232,6.93000030517578
256.242,11.5100002288818
256.252,44.3400039672852
256.262,86.5500030517578
256.272,106.540008544922
256.282,140.910003662109
256.292,173.910003662109
256.302,155.820007324219
256.312,137.480010986328
256.322,130.270004272461
256.33,91.5900039672852
256.34,67.3000030517578
256.35,66.7100067138672
256.36,42.7300033569336
256.37,41.0200004577637
256.38,67.3000030517578
256.39,76.8200073242188
256.4,71.4300003051758
256.41,77.8000030517578
256.42,63.7300033569336
256.43,24.5300006866455
256.44,-20.7900009155273
256.45,-60.2000045776367
256.46,-104.120002746582
256.47,-133.84001159668
256.48,-128.520004272461
256.49,-103.810005187988
256.5,-62.4000015258789
256.51,-12.2100009918213
256.52,9.66000080108643
256.529,15.8500003814697
256.539,13.3700008392334
256.549,-31.8800010681152
256.559,-109.650001525879
256.569,-172.020004272461
256.579,-230.09001159668
256.589,-273.630004882812
256.599,-292.880004882812
256.609,-291.900024414062
256.619,-267.960021972656
256.629,-234.250015258789
256.639,-176.780014038086
256.649,-116.550003051758
256.659,-71.4700012207031
256.669,-36.2900009155273
256.679,-13.7200002670288
256.689,-15.5400009155273
256.699,-22.0500011444092
256.709,-13.1900005340576
256.719,4.62000036239624
256.723,214.580017089844
256.733,234.080017089844
256.743,241.600006103516
256.753,218.400009155273
256.763,195.890014648438
256.773,148.190002441406
256.783,79.2700042724609
256.793,29.8200016021729
256.803,5.39000034332275
256.813,-27.7200012207031
256.823,-68.8800048828125
256.833,-83.4400024414062
256.843,-80.9500045776367
256.853,-71.6100006103516
256.863,-66.9200057983398
256.873,-58.2000045776367
256.882,-50.4000015258789
256.892,-36.4300003051758
256.902,-8.5
256.912,43.3300018310547
256.922,101.01000213623
256.932,136.810012817383
256.942,178.530014038086
256.952,227.320007324219
256.962,221.93000793457
256.972,186.860015869141
256.982,142.200012207031
256.992,87.0400009155273
257.002,12.6000003814697
257.012,-65.2700042724609
257.022,-129.320007324219
257.032,-175.84001159668
257.042,-224.240005493164
257.052,-265.890014648438
257.062,-270.300018310547
257.072,-246.120010375977
257.08,-214.370010375977
257.09,-174.580001831055
257.1,-107.480003356934
257.11,-33.810001373291
257.12,10.6000003814697
257.13,27.8900012969971
257.14,36.6800003051758
257.15,18.060001373291
257.16,-32.0900001525879
257.17,-101.040008544922
257.18,-151.760009765625
257.19,-207.720016479492
257.2,-249.720016479492
257.21,-295.190002441406
257.22,-331.170013427734
257.23,-335.370025634766
257.24,-318.530029296875
257.25,-302.260009765625
257.26,-270.130004882812
257.27,-226.200012207031
257.279,-185.880004882812
257.289,-143.320007324219
257.299,-105.980003356934
257.309,-74.4100036621094
257.319,-61.5300025939941
257.329,-56.1700019836426
257.339,-57.0100021362305
257.349,-52.5700035095215
257.359,-56.8000030517578
257.369,-78.5400009155273
257.379,-101.990005493164
257.389,-111.580001831055
257.399,-101.92000579834
257.409,-112.42000579834
257.419,-133.660003662109
257.429,-144.510009765625
257.439,-140.280014038086
257.449,-136.920013427734
257.459,-133.420013427734
257.469,-124.040008544922
257.473,86.7600021362305
257.483,122.01000213623
257.493,165.760009765625
257.503,176.080001831055
257.513,160.230010986328
257.523,136.920013427734
257.533,143.25
257.543,159.350006103516
257.553,149.130004882812
257.563,105.350006103516
257.573,61.810001373291
257.583,22.2900009155273
257.593,-14.6300010681152
257.603,-62.5800018310547
257.613,-127.68000793457
257.623,-186.09001159668
257.632,-248.010009765625
257.642,-268.730010986328
257.652,-247.970016479492
257.662,-230.510009765625
257.672,-199.600006103516
257.682,-148.68000793457
257.692,-93.3400039672852
257.702,-34.9300003051758
257.712,-0.770000040531158
257.722,-2.13000011444092
257.732,-4.97000026702881
257.742,5.18000030517578
257.752,5.04000043869019
257.762,-9.17000007629395
257.772,-10.8800001144409
257.782,-6.02000045776367
257.792,24.6400012969971
257.802,66.9500045776367
257.812,128.690002441406
257.822,203.520004272461
257.83,262.920013427734
257.84,285.420013427734
257.85,265.610015869141
257.86,243.670013427734
257.87,236.740005493164
257.88,210.450012207031
257.89,176.190002441406
257.9,134.75
257.91,82.390007019043
257.92,25.9000015258789
257.93,-6.19000005722046
257.94,1.71000003814697
257.95,23.7600002288818
257.96,33.3900032043457
257.97,21.9400005340576
257.98,-6.05000019073486
257.99,-3.3600001335144
258,41.8600006103516
258.01,100.060005187988
258.02,148.050003051758
258.029,194.880004882812
258.039,233.410003662109
258.049,281.990020751953
258.059,312.720001220703
258.069,300.02001953125
258.079,238.240005493164
258.089,153.890014648438
258.099,72.4100036621094
258.109,-7.00000047683716
258.119,-57.2200012207031
258.129,-100.380004882812
258.139,-144.270004272461
258.149,-147.100006103516
258.159,-97.6100082397461
258.169,-46.5100021362305
258.179,-15.7800006866455
258.189,-22.8200016021729
258.199,-39.6900024414062
258.209,-62.9600028991699
258.219,-68.2800064086914
258.224,-85.2900009155273
258.234,-54.1100044250488
258.244,-39.5500030517578
258.254,-27.9300022125244
258.264,-27.6500015258789
258.274,-23.8300018310547
258.284,-5
258.294,-18.3400001525879
258.304,-15.1900005340576
258.314,-7.70000028610229
258.324,2.20000004768372
258.334,12.1400003433228
258.344,-1.40000009536743
258.354,-35.560001373291
258.364,-38.6000022888184
258.374,-19
258.381,-18.3000011444092
258.391,-12.2100009918213
258.401,-19.980001449585
258.411,-48.4700012207031
258.421,-56.3500022888184
258.431,-66.3199996948242
258.441,-114.730003356934
258.451,-166.880004882812
258.461,-213.780014038086
258.471,-231.520004272461
258.481,-219.34001159668
258.491,-199.320007324219
258.501,-204.850006103516
258.511,-189.490005493164
258.521,-148.610000610352
258.531,-120.570007324219
258.541,-119.560005187988
258.551,-148.540008544922
258.561,-178.110015869141
258.571,-196.490005493164
258.58,-190.150009155273
258.59,-178.880004882812
258.6,-156.100006103516
258.61,-115.040008544922
258.62,-64.0100021362305
258.63,-6.8600001335144
258.64,26.2100009918213
258.65,44.9000015258789
258.66,63.0300025939941
258.67,82.8800048828125
258.68,94.9200057983398
258.69,93.870002746582
258.7,73.8800048828125
258.71,55.930004119873
258.72,45.6400032043457
258.73,34.370002746582
258.74,17.7800006866455
258.75,-4.09000015258789
258.76,-22.6800003051758
258.77,-26.810001373291
258.779,-20.0200004577637
258.789,-13.7200002670288
258.799,-9.34000015258789
258.809,4.62000036239624
258.819,25.7600021362305
258.829,56.9800033569336
258.839,89.3500061035156
258.849,97.8200073242188
258.859,96.5600051879883
258.869,87.390007019043
258.879,80.4600067138672
258.889,67.3400039672852
258.899,60.9000015258789
258.909,70.5600051879883
258.919,88.1600036621094
258.929,106.050003051758
258.939,112.770004272461
258.949,102.440002441406
258.959,84.2400054931641
258.969,61.2500038146973
258.973,-116.160003662109
258.983,-115.880004882812
258.993,-128.940002441406
259.003,-140.280014038086
259.013,-124.110008239746
259.023,-92.9600067138672
259.033,-62.1600036621094
259.043,-40.4600028991699
259.053,-27.7900009155273
259.063,-14.7300004959106
259.073,2.20000004768372
259.083,-3.1800000667572
259.093,-27.5400009155273
259.103,-44.7300033569336
259.113,-63.4200019836426
259.123,-88.0200042724609
259.131,-112.140007019043
259.141,-115.43000793457
259.151,-117.460006713867
259.161,-112.800003051758
259.171,-102.130004882812
259.181,-104.26000213623
259.191,-83.0900039672852
259.201,-55.370002746582
259.211,-43.4300003051758
259.221,-33.4600028991699
259.231,-23.2400016784668
259.241,0.140000000596046
259.251,23.1700019836426
259.261,31.4600009918213
259.271,30.2000007629395
259.281,40.9800033569336
259.291,59.430004119873
259.301,63.7000045776367
259.311,51.0300025939941
259.321,32.8300018310547
259.33,17.5700016021729
259.34,3.64000010490417
259.35,-20.5800018310547
259.36,-46.060001373291
259.37,-54.8800010681152
259.38,-51.1700019836426
259.39,-38.8500022888184
259.4,-32.5800018310547
259.41,-24.4300003051758
259.42,-4.48000001907349
259.43,16.3400001525879
259.44,28.9400005340576
259.45,35.6599998474121
259.46,47.2800025939941
259.47,42.7700004577637
259.48,42.7300033569336
259.49,36.0100021362305
259.5,29.1200008392334
259.51,26.1800003051758
259.52,21.2400016784668
259.529,8.85000038146973
259.539,-5.1100001335144
259.549,-17.3600006103516
259.559,-47.6000022888184
259.569,-71.1900024414062
259.579,-98.1000061035156
259.589,-96.390007019043
259.599,-82.0400009155273
259.609,-63.7700042724609
259.619,-41.4700012207031
259.629,-0.0700000002980232
259.639,45.8800010681152
259.649,74.5800018310547
259.659,85.7100067138672
259.669,82.8100051879883
259.679,68.5600051879883
259.689,45.0400009155273
259.699,20.3000011444092
259.709,-6.93000030517578
259.719,-24.3200016021729
259.723,26.4200019836426
259.733,21.7000007629395
259.743,10.2200002670288
259.753,2.38000011444092
259.763,-23.8300018310547
259.773,-55.6100044250488
259.783,-76.0500030517578
259.793,-79.870002746582
259.803,-62.370002746582
259.813,-42.4500007629395
259.823,-31.5300006866455
259.833,1.33000004291534
259.843,30.4100017547607
259.853,42.2400016784668
259.863,32.7200012207031
259.873,18.6900005340576
259.881,-0.520000040531158
259.891,-33.2800025939941
259.901,-76.5800018310547
259.911,-100.970001220703
259.921,-109.690002441406
259.931,-121.870002746582
259.941,-122.250007629395
259.951,-92.3300018310547
259.961,-58.870002746582
259.971,-34.5400009155273
259.981,-11.5500001907349
259.991,26.4900016784668
260.001,73.8500061035156
260.011,82.4200057983398
260.021,73.2200012207031
260.031,79.620002746582
260.041,90.0500030517578
260.051,71.2900009155273
260.061,41.370002746582
260.071,23.4100017547607
260.08,7.14000034332275
260.09,-19.8800010681152
260.1,-46.060001373291
260.11,-63.4200019836426
260.12,-72.3800048828125
260.13,-78.75
260.14,-64.4700012207031
260.15,-32.060001373291
260.16,15.5700006484985
260.17,33.3199996948242
260.18,45.0400009155273
260.19,69.2600021362305
260.2,70.7300033569336
260.21,36.3600006103516
260.22,4.83000040054321
260.23,-16.3800010681152
260.24,-39.1600036621094
260.25,-62.2300033569336
260.26,-75.5300064086914
260.27,-81.3000030517578
260.279,-68.0699996948242
260.289,-66.7800064086914
260.299,-39.0900001525879
260.309,-6.93000030517578
260.319,16.730001449585
260.329,29.8900012969971
260.339,47.6700019836426
260.349,58.9700012207031
260.359,44.9400024414062
260.369,29.3600006103516
260.379,40.810001373291
260.389,36.3300018310547
260.399,10.2900009155273
260.409,-9.80000019073486
260.419,-11.5500001907349
260.429,-0.280000001192093
260.439,-5.98000049591064
260.449,-1.89000010490417
260.459,17.1100006103516
260.469,21.4200000762939
260.473,-28.6600017547607
260.483,-25.480001449585
260.493,-26.1100006103516
260.503,-34.8900032043457
260.513,-20.3000011444092
260.523,-0.660000026226044
260.533,-1.29000008106232
260.543,-14.1000003814697
260.553,-6.82000017166138
260.563,-6.44000053405762
260.573,-23.730001449585
260.583,-14.9800004959106
260.593,2.41000008583069
260.603,4.62000036239624
260.613,2.55000019073486
260.623,15.8900003433228
260.631,19.6700000762939
260.641,11.6500005722046
260.651,16.9700012207031
260.661,26.980001449585
260.671,12.1800003051758
260.681,5.95000028610229
260.691,7.98000049591064
260.701,3.57000017166138
260.711,4.37000036239624
260.721,8.01000022888184
260.731,25.4400005340576
260.741,34.9300003051758
260.751,21.980001449585
260.761,21.9100017547607
260.771,23.730001449585
260.781,15.2600011825562
260.791,16.9000015258789
260.801,27.5800018310547
260.811,11.3000001907349
260.821,1.6100001335144
260.83,17.4300003051758
260.84,15.6400003433228
260.85,7.70000028610229
260.86,17.3200016021729
260.87,25.2000007629395
260.88,21.0300006866455
260.89,20.7200012207031
260.9,28.310001373291
260.91,22.5000019073486
260.92,13.4400005340576
260.93,7.35000038146973
260.94,-3.64000010490417
260.95,-8.61000061035156
260.96,0.450000017881393
260.97,12.8400001525879
260.98,13.8600006103516
260.99,7.00000047683716
261,17.810001373291
261.01,22.7500019073486
261.02,20.4400005340576
261.029,21.9100017547607
261.039,23.9400005340576
261.049,26.7400016784668
261.059,33.4600028991699
261.069,32.370002746582
261.079,12.0700006484985
261.089,-8.71000003814697
261.099,-19.3500003814697
261.109,-15.2600011825562
261.119,-0.100000001490116
261.129,-3.74000024795532
261.139,18.5100002288818
261.149,23.2700004577637
261.159,23.8300018310547
261.169,29.1900005340576
261.179,14.5900011062622
261.189,5.14000034332275
261.199,15.8200006484985
261.209,1.64000010490417
261.219,-15.4000005722046
261.224,57.0800018310547
261.234,69.6800003051758
261.244,81.5500030517578
261.254,70.7300033569336
261.264,31.4600009918213
261.274,-14.7000007629395
261.284,-20.8200016021729
261.294,-14.4200010299683
261.304,-12.9800004959106
261.314,-8.15000057220459
261.324,8.22000026702881
261.334,28.2400016784668
261.344,48.0500030517578
261.354,53.5800018310547
261.364,54.1400032043457
261.374,55.8900032043457
261.381,69.2300033569336
261.391,91.2100067138672
261.401,99.4700012207031
261.411,102.060005187988
261.421,90.9300079345703
261.431,79.3800048828125
261.441,58.620002746582
261.451,28.0000019073486
261.461,14.9400005340576
261.471,7.35000038146973
261.481,14.8000011444092
261.491,24.6400012969971
261.501,19.4600009918213
261.511,6.33000040054321
261.521,-13.0500001907349
261.531,-32.6900024414062
261.541,-34.3300018310547
261.551,-47.4900016784668
261.561,-53.5500030517578
261.571,-34.8200035095215
261.58,-19.1800003051758
261.59,-10.7400007247925
261.6,9.45000076293945
261.61,20.2600002288818
261.62,23.4100017547607
261.63,34.8200035095215
261.64,36.7100028991699
261.65,48.0500030517578
261.66,63.4200019836426
261.67,65.5500030517578
261.68,57.4700012207031
261.69,32.7200012207031
261.7,14.8400011062622
261.71,-2.38000011444092
261.72,-12.9800004959106
261.73,-0.940000057220459
261.74,20.8900012969971
261.75,41.5100021362305
261.76,66.4300003051758
261.77,91.8400039672852
261.779,94.9900054931641
261.789,102.270004272461
261.799,95.5500030517578
261.809,62.2300033569336
261.819,22.6100006103516
261.829,-30.2400016784668
261.839,-78.5
261.849,-114.76000213623
261.859,-140.490005493164
261.869,-133.310012817383
261.879,-126.490005493164
261.889,-86.8000030517578
261.899,-24.7400016784668
261.909,17.7400016784668
261.919,59.1500015258789
261.929,92.9900054931641
261.939,100.76000213623
261.949,108.780006408691
261.959,112.000007629395
261.969,90.5100021362305
261.973,-47.4900016784668
261.983,-64.7800064086914
261.993,-93.5200042724609
262.003,-112.140007019043
262.013,-134.68000793457
262.023,-161.700012207031
262.033,-161.030014038086
262.043,-165.34001159668
262.053,-200.230010986328
262.063,-216.120010375977
262.073,-185.43000793457
262.083,-155.850006103516
262.093,-109.790008544922
262.103,-46.8300018310547
262.113,4.93000030517578
262.123,41.0200004577637
262.131,74.1600036621094
262.141,92.8500061035156
262.151,94.6000061035156
262.161,92.120002746582
262.171,96.2100067138672
262.181,82.9800033569336
262.191,74.7600021362305
262.201,78.4700012207031
262.211,94.5700073242188
262.221,109.51000213623
262.231,105.490005493164
262.241,79.0600051879883
262.251,52.5000038146973
262.261,23.730001449585
262.271,-10.8100004196167
262.281,-29.1200008392334
262.291,-62.9600028991699
262.301,-104.26000213623
262.311,-120.710006713867
262.321,-124.980003356934
262.33,-120.330009460449
262.34,-100.940002441406
262.35,-89.2100067138672
262.36,-92.8500061035156
262.37,-82.0400009155273
262.38,-76.5800018310547
262.39,-75.7400054931641
262.4,-54.3900032043457
262.41,-25.5500011444092
262.42,3.67000007629395
262.43,53.2000007629395
262.44,115.810005187988
262.45,155.75
262.46,181.720001220703
262.47,206.780014038086
262.48,222.110015869141
262.49,219.730010986328
262.5,240.310012817383
262.51,256.790008544922
262.52,242.720016479492
262.525,49.0700035095215
262.535,12.3200006484985
262.545,-19.7700004577637
262.555,-12.7400007247925
262.565,10.8100004196167
262.575,35.8000030517578
262.585,58.7300033569336
262.595,101.780006408691
262.605,163.690002441406
262.615,206.110015869141
262.625,232.150009155273
262.635,262.600006103516
262.645,260.570007324219
262.655,242.060012817383
262.665,229.250015258789
262.675,210.490005493164
262.682,163.130004882812
262.692,121.340003967285
262.702,87.7800064086914
262.712,52.3900032043457
262.722,10.9900007247925
262.732,-22.5000019073486
262.742,-39.3000030517578
262.752,-54.8400039672852
262.762,-53.5500030517578
262.772,-48.3300018310547
262.782,-46.5800018310547
262.792,-21.5200004577637
262.802,0.840000033378601
262.812,34.0900001525879
262.822,58.8300018310547
262.832,61.8400039672852
262.842,74.620002746582
262.852,104.440002441406
262.862,108.570007324219
262.872,98.9400024414062
262.881,73.4600067138672
262.891,33.25
262.901,-1.12000000476837
262.911,-29.0800018310547
262.921,-72.7600021362305
262.931,-110.910003662109
262.941,-133.210006713867
262.951,-137.300003051758
262.961,-121.17000579834
262.971,-108.01000213623
262.981,-86.1300048828125
262.991,-54.6000022888184
263.001,-15.8900003433228
263.011,12.3900003433228
263.021,24.810001373291
263.031,28.3500022888184
263.041,11.4100008010864
263.051,3.25000023841858
263.061,-1.96000003814697
263.071,6.8600001335144
263.08,27.9300022125244
263.09,40.9500007629395
263.1,57.2600021362305
263.11,54.9100036621094
263.12,55.0500030517578
263.13,56.9400024414062
263.14,66.4300003051758
263.15,78.4300003051758
263.16,74.3400039672852
263.17,46.8600006103516
263.18,14.1000003814697
263.19,18.6900005340576
263.2,39.5800018310547
263.21,61.2100028991699
263.22,81.0900039672852
263.23,71.6800003051758
263.24,60.2700042724609
263.25,81.9000015258789
263.26,74.4400024414062
263.27,53.0200042724609
263.274,100.17000579834
263.284,155.75
263.294,189.170013427734
263.304,198.970016479492
263.314,195.260009765625
263.324,141.470001220703
263.334,53.7600021362305
263.344,-10.0800008773804
263.354,-61.810001373291
263.364,-90.2600021362305
263.374,-92.9900054931641
263.384,-102.130004882812
263.394,-120.68000793457
263.404,-101.290008544922
263.414,-60.7200012207031
263.424,-55.9600028991699
263.432,-73.3600006103516
263.442,-81.0600051879883
263.452,-70.3100051879883
263.462,-52.8500022888184
263.472,-52.7800025939941
263.482,-67.4400024414062
263.492,-70.3500061035156
263.502,-62.120002746582
263.512,-36.1500015258789
263.522,-6.19000005722046
263.532,5.46000003814697
263.542,17.8800010681152
263.552,49.3800010681152
263.562,75.5600051879883
263.572,62.1900024414062
263.582,26.1800003051758
263.592,-7.1700005531311
263.602,-26.9100017547607
263.612,-26.8800010681152
263.622,-8.78000068664551
263.631,6.47000026702881
263.641,24.5000019073486
263.651,60.0200042724609
263.661,107.690002441406
263.671,138.139999389648
263.681,164.740005493164
263.691,204.260009765625
263.701,224.030014038086
263.711,228.760009765625
263.721,234.850006103516
263.731,234.18000793457
263.741,220.710006713867
263.751,195.580001831055
263.761,169.360000610352
263.771,133.560012817383
263.781,100.240005493164
263.791,70.2100067138672
263.801,19.1400012969971
263.811,-23.1000003814697
263.821,-46.9700012207031
263.83,-61.7400016784668
263.84,-62.680004119873
263.85,-20.3700008392334
263.86,-11.9000005722046
263.87,2.41000008583069
263.88,25.230001449585
263.89,24.1100006103516
263.9,3.60000014305115
263.91,-7.80000019073486
263.92,-52.5700035095215
263.93,-116.060005187988
263.94,-138.880004882812
263.95,-178.810012817383
263.96,-223.720016479492
263.97,-231.170013427734
263.98,-238.350006103516
263.99,-207.790008544922
264,-132.260009765625
264.01,-30.4100017547607
264.02,64.8199996948242
264.025,287.700012207031
264.035,259.660003662109
264.045,215.530014038086
264.055,187.530014038086
264.065,154.210006713867
264.075,118.790008544922
264.085,94.6700057983398
264.095,63.9800033569336
264.105,16.730001449585
264.115,-24.9200019836426
264.125,-64.4000015258789
264.135,-112.770004272461
264.145,-148.610000610352
264.155,-147.420013427734
264.165,-134.150009155273
264.175,-123.230003356934
264.182,-102.060005187988
264.192,-57.9900016784668
264.202,-24.9500007629395
264.212,9.59000015258789
264.222,50.9900016784668
264.232,69.2300033569336
264.242,72.3400039672852
264.252,75.6700057983398
264.262,67.4800033569336
264.272,49.4900016784668
264.282,17.1800003051758
264.292,-15.6800003051758
264.302,-47.6000022888184
264.312,-51.1700019836426
264.322,-46.6900024414062
264.332,-25.6500015258789
264.342,-3.85000014305115
264.352,38.0800018310547
264.362,86.2700042724609
264.372,114.620002746582
264.381,138.139999389648
264.391,143.780014038086
264.401,124.42000579834
264.411,100.450004577637
264.421,63.2100028991699
264.431,7.07000017166138
264.441,-39.7200012207031
264.451,-82.0400009155273
264.461,-151.790008544922
264.471,-196.100006103516
264.481,-215.070007324219
264.491,-204.500015258789
264.501,-177.410003662109
264.511,-121.660003662109
264.521,-49.870002746582
264.531,19.8400001525879
264.541,74.2000045776367
264.551,119.800003051758
264.561,140.210006713867
264.571,133.070007324219
264.58,122.710006713867
264.59,106.050003051758
264.6,78.8500061035156
264.61,44.9000015258789
264.62,16.2700004577637
264.63,17.3600006103516
264.64,24.1800003051758
264.65,38.7100028991699
264.66,56.1400032043457
264.67,63.5900039672852
264.68,63.4500045776367
264.69,79.9400024414062
264.7,85.890007019043
264.71,59.2500038146973
264.72,19.3200016021729
264.73,-25.7600021362305
264.74,-62.370002746582
264.75,-70.0699996948242
264.76,-68.390007019043
264.77,-55.1600036621094
264.774,63.6600036621094
264.784,21.1000003814697
264.794,-9.45000076293945
264.804,-41.4000015258789
264.814,-44.2400016784668
264.824,-30.7600021362305
264.834,2.52000021934509
264.844,24.3600006103516
264.854,51.2400016784668
264.864,58.2000045776367
264.874,56.9100036621094
264.884,50.4700012207031
264.894,23.8000011444092
264.904,-5.28000020980835
264.914,-17.4600009918213
264.924,-4.58000040054321
264.932,18.7200012207031
264.942,12.5300006866455
264.952,0.100000001490116
264.962,23.7600002288818
264.972,43.2900009155273
264.982,55.3300018310547
264.992,37.310001373291
265.002,21.6600017547607
265.012,31.9500007629395
265.022,45.7400016784668
265.032,55.930004119873
265.042,44.060001373291
265.052,28.2400016784668
265.062,3.57000017166138
265.072,5.8100004196167
265.082,3.32000017166138
265.092,-16.9700012207031
265.102,-23.1300010681152
265.112,-26.0700016021729
265.122,-24.6700019836426
265.131,-28.0000019073486
265.141,-30.3800010681152
265.151,-24.7100009918213
265.161,-10.1500005722046
265.171,7.49000024795532
265.181,24.5300006866455
265.191,32.7900009155273
265.201,33.1800003051758
265.211,30.6600017547607
265.221,33.9500007629395
265.231,44.4800033569336
265.241,36.6100006103516
265.251,39.7200012207031
265.261,36.7800025939941
265.271,18.6900005340576
265.281,9.66000080108643
265.291,-7.5600004196167
265.301,-26.3500003814697
265.311,-20.8200016021729
265.321,-6.33000040054321
265.33,5.49000024795532
265.34,14.1700010299683
265.35,25.6200008392334
265.36,29.0500011444092
265.37,43.4300003051758
265.38,46.5800018310547
265.39,11.0200004577637
265.4,-33.6700019836426
265.41,-56.870002746582
265.42,-51.3800010681152
265.43,-53.4100036621094
265.44,-37.2400016784668
265.45,-9.55000019073486
265.46,30.730001449585
265.47,63.4500045776367
265.48,78.5700073242188
265.49,81.8600006103516
265.5,82.6300048828125
265.51,75.9500045776367
265.52,71.4000015258789
265.524,14.1000003814697
265.534,7.3100004196167
265.544,-3.4300000667572
265.554,-13.9300003051758
265.564,-19.1100006103516
265.574,-27.2600021362305
265.584,-38.5700035095215
265.594,-31.6700019836426
265.604,1.29000008106232
265.614,4.01999998092651
265.624,29.9900016784668
265.634,57.0800018310547
265.644,60.1300010681152
265.654,58.3400039672852
265.664,64.6399993896484
265.674,44.6600036621094
265.682,28.4200019836426
265.692,11.7900009155273
265.702,-26.7700004577637
265.712,-51.620002746582
265.722,-55.930004119873
265.732,-58.9700012207031
265.742,-48.0900039672852
265.752,-30.8700008392334
265.762,-21.1400012969971
265.772,3.99000024795532
265.782,29.8900012969971
265.792,34.6100006103516
265.802,49.7700004577637
265.812,57.6400032043457
265.822,59.2900009155273
265.832,54.7400016784668
265.842,48.930004119873
265.852,38.810001373291
265.862,24.9200019836426
265.872,8.85000038146973
265.881,-15.4000005722046
265.891,-40.0400009155273
265.901,-50.2200012207031
265.911,-58.5500030517578
265.921,-62.5800018310547
265.931,-58.9400024414062
265.941,-40.3900032043457
265.951,-19.1800003051758
265.961,-11.7900009155273
265.971,-9.13000011444092
265.981,-2.55000019073486
265.991,5.14000034332275
266.001,-1.4300000667572
266.011,-8.28999996185303
266.021,-33.3199996948242
266.031,-31.7100009918213
266.041,-22.4000015258789
266.051,-40.6000022888184
266.061,-45.8500022888184
266.071,-31.2900009155273
266.08,-26.4600009918213
266.09,-14.8000011444092
266.1,-1.15000009536743
266.11,-7.45000028610229
266.12,-0.0700000002980232
266.13,9.20000076293945
266.14,7.10000038146973
266.15,22.5400009155273
266.16,39.6900024414062
266.17,46.4800033569336
266.18,68.9800033569336
266.19,80.0800018310547
266.2,63.8000030517578
266.21,60.7900047302246
266.22,44.5500030517578
266.23,14.5900011062622
266.24,6.65000009536743
266.25,-7.73000049591064
266.26,-26.810001373291
266.27,-26.3500003814697
266.274,12.7700004577637
266.284,11.7900009155273
266.294,13.7900009155273
266.304,0.940000057220459
266.314,-26.810001373291
266.324,-47.9800033569336
266.334,-74.2300033569336
266.344,-96.0700073242188
266.354,-96.0700073242188
266.364,-96.4200057983398
266.374,-102.900001525879
266.384,-90.2600021362305
266.394,-69.4700012207031
266.404,-73.8100051879883
266.414,-89.0000076293945
266.424,-86.620002746582
266.432,-70.9800033569336
266.442,-63.6300048828125
266.452,-64.75
266.462,-50.120002746582
266.472,-16.8000011444092
266.482,15.4300003051758
266.492,26.980001449585
266.502,20.6500015258789
266.512,31.1800022125244
266.522,36.6400032043457
266.532,25.8300018310547
266.542,19.1800003051758
266.552,49.6300010681152
266.562,93.2700042724609
266.572,112.350006103516
266.582,132.650009155273
266.592,186.09001159668
266.602,218.890014648438
266.612,224.940017700195
266.622,228.440017700195
266.631,223.860015869141
266.641,190.820007324219
266.651,157.780014038086
266.661,136.880004882812
266.671,93.6600036621094
266.681,42.1700019836426
266.691,9.24000072479248
266.701,-22.8200016021729
266.711,-86.3400039672852
266.721,-129.460006713867
266.731,-173.560012817383
266.741,-236.670013427734
266.751,-274.080017089844
266.761,-309.260009765625
266.771,-292.350006103516
266.781,-236.110015869141
266.791,-142.380004882812
266.801,-23.310001373291
266.811,87.2500076293945
266.821,187.140014648438
266.829,258.610015869141
266.839,319.620025634766
266.849,366.900024414062
266.859,379.610015869141
266.869,397.390014648438
266.879,433.440032958984
266.889,457.760009765625
266.899,476.980010986328
266.909,492.170013427734
266.919,487.930023193359
266.929,463.360015869141
266.939,422.170013427734
266.949,368.650024414062
266.959,311.850006103516
266.969,252.170013427734
266.979,185.150009155273
266.989,134.75
266.999,106.43000793457
267.009,94.7800064086914
267.019,73.3600006103516
267.024,5.67000007629395
267.034,7.14000034332275
267.044,8.78000068664551
267.054,6.33000040054321
267.064,16.9000015258789
267.074,40.7000007629395
267.084,49.7700004577637
267.094,50.120002746582
267.104,43.6800003051758
267.114,43.4000015258789
267.124,42.7000007629395
267.134,22.4700012207031
267.144,0.240000009536743
267.154,-12.7700004577637
267.164,-11.9700002670288
267.174,-11.6200008392334
267.182,-14.3800010681152
267.192,-19.2100009918213
267.202,-24.7400016784668
267.212,-7.28000020980835
267.222,-1.40000009536743
267.232,-14.6600008010864
267.242,-17.1100006103516
267.252,-16.8299999237061
267.262,-23.6600017547607
267.272,-33.6700019836426
267.282,-46.5800018310547
267.292,-38.25
267.302,-1.92000007629395
267.312,35.8400001525879
267.322,45.2200012207031
267.332,46.9700012207031
267.342,41.8900032043457
267.352,48.4400024414062
267.362,36.4300003051758
267.372,3.88000011444092
267.381,-23.2700004577637
267.391,-30.9400005340576
267.401,-25.3000011444092
267.411,-36.7100028991699
267.421,-40.6300010681152
267.431,-50.8500022888184
267.441,-36.9200019836426
267.451,-10.4300003051758
267.461,-12.9100008010864
267.471,-8.96000003814697
267.481,-9.83000087738037
267.491,-6.51000022888184
267.501,-2.76000022888184
267.511,-8.75
267.521,-7.21000051498413
267.531,-12.1400003433228
267.541,-5.77000045776367
267.551,14.5600004196167
267.561,11.9300003051758
267.571,10.7400007247925
267.579,-6.30000019073486
267.589,-40.3500022888184
267.599,-62.3300018310547
267.609,-93.0600051879883
267.619,-120.01000213623
267.629,-126.450004577637
267.639,-112.520004272461
267.649,-61.6700019836426
267.659,-32.9700012207031
267.669,-20.3300018310547
267.679,-10.6700000762939
267.689,-3.39000010490417
267.699,30.7600021362305
267.709,52.5300025939941
267.719,34.6500015258789
267.729,14.0300006866455
267.739,-9.3100004196167
267.749,-10.1500005722046
267.759,4.90000009536743
267.769,-18.7900009155273
267.773,-40.1800003051758
267.783,-79.7600021362305
267.793,-97.9300079345703
267.803,-87.5000076293945
267.813,-45.1100006103516
267.823,16.5900001525879
267.833,70.7300033569336
267.843,118.440002441406
267.853,182.070007324219
267.863,235.900009155273
267.873,272.090026855469
267.883,262.809997558594
267.893,196.490005493164
267.903,121.310005187988
267.913,38.3600006103516
267.923,-52.3200035095215
267.932,-113.400009155273
267.942,-181.020004272461
267.952,-238.420013427734
267.962,-257.460021972656
267.972,-250.070007324219
267.982,-227.250015258789
267.992,-190.290008544922
268.002,-135.170013427734
268.012,-86.3800048828125
268.022,-17.2200012207031
268.032,71.5699996948242
268.042,155.990005493164
268.052,193.830001831055
268.062,166.670013427734
268.072,120.570007324219
268.082,77.3100051879883
268.092,73.25
268.102,76.8600006103516
268.112,72.6600036621094
268.122,47.560001373291
268.131,44.2000007629395
268.141,62.120002746582
268.151,79.0300064086914
268.161,101.850006103516
268.171,135.660003662109
268.181,177.620010375977
268.191,228.580017089844
268.201,279.050018310547
268.211,319.340026855469
268.221,349.930023193359
268.231,355.560028076172
268.241,345.760009765625
268.251,304.360015869141
268.261,254.660018920898
268.271,205.660003662109
268.281,138.600006103516
268.291,84.2800064086914
268.301,47.8800010681152
268.311,48.7500038146973
268.321,59.6700019836426
268.329,83.8600006103516
268.339,110.980003356934
268.349,118.230003356934
268.359,91.6600036621094
268.369,62.2300033569336
268.379,16.6900005340576
268.389,-31.2200012207031
268.399,-85.4300003051758
268.409,-146.050003051758
268.419,-204.890014648438
268.429,-235.09001159668
268.439,-230.860015869141
268.449,-210.310012817383
268.459,-163.130004882812
268.469,-105.870002746582
268.479,-39.060001373291
268.489,35.9400024414062
268.499,102.76000213623
268.509,159.25
268.519,187.000015258789
268.523,92.640007019043
268.533,45.5000038146973
268.543,6.89000034332275
268.553,-36.5
268.563,-56.560001373291
268.573,-73.5
268.583,-84.6600036621094
268.593,-83.6500015258789
268.603,-55.0500030517578
268.613,-17.6000003814697
268.623,28.6300010681152
268.633,62.5100021362305
268.643,78.120002746582
268.653,84.0700073242188
268.663,67.7900009155273
268.673,38.4300003051758
268.682,19.2800006866455
268.692,-22.6400012969971
268.702,-58.5900039672852
268.712,-74.0200042724609
268.722,-90.1600036621094
268.732,-92.5400009155273
268.742,-90.1900024414062
268.752,-101.67000579834
268.762,-124.910003662109
268.772,-157.740005493164
268.782,-174.470001220703
268.792,-184.620010375977
268.802,-183.290008544922
268.812,-168.070007324219
268.822,-139.510009765625
268.832,-77.7700042724609
268.842,3.08000016212463
268.852,78.1900024414062
268.862,136.290008544922
268.872,175.800003051758
268.881,195.020004272461
268.891,220.990005493164
268.901,249.760009765625
268.911,253.360015869141
268.921,240.310012817383
268.931,201.910003662109
268.941,151.370010375977
268.951,93.2400054931641
268.961,40.9800033569336
268.971,-9.83000087738037
268.981,-52.0400009155273
268.991,-74.4400024414062
269.001,-67.8600006103516
269.011,-61.9800033569336
269.021,-37.6600036621094
269.031,-7.80000019073486
269.041,25.5800018310547
269.051,71.9200057983398
269.061,105.840003967285
269.071,120.990005493164
269.079,114.870002746582
269.089,117.490005493164
269.099,119.590003967285
269.109,108.040008544922
269.119,84.9800033569336
269.129,60.5100021362305
269.139,49.7000007629395
269.149,51.2400016784668
269.159,47.0000038146973
269.169,28.2400016784668
269.179,-0.310000002384186
269.189,-22.7100009918213
269.199,-34.9600028991699
269.209,-44.5500030517578
269.219,-70.9800033569336
269.229,-102.020004272461
269.239,-99.6800079345703
269.249,-76.6800003051758
269.259,-35.2400016784668
269.269,-4.16000032424927
269.273,163.450012207031
269.283,150.880004882812
269.293,126.310005187988
269.303,112.910003662109
269.313,91.3500061035156
269.323,55.6500015258789
269.333,10.9500007629395
269.343,-38.1800003051758
269.353,-62.930004119873
269.363,-79.4500045776367
269.373,-93.0300064086914
269.383,-112.590003967285
269.393,-121.310005187988
269.403,-104.230003356934
269.413,-70.9400024414062
269.423,-40.7400016784668
269.432,-11.8600006103516
269.442,9.24000072479248
269.452,27.0900020599365
269.462,47.4600028991699
269.472,60.9700012207031
269.482,78.3600006103516
269.492,81.9000015258789
269.502,81.8600006103516
269.512,89.8100051879883
269.522,90.1900024414062
269.532,91.4200057983398
269.542,88.3000030517578
269.552,86.3100051879883
269.562,76.5800018310547
269.572,67.4400024414062
269.582,49.0300025939941
269.592,35.7700004577637
269.602,25.9700012207031
269.612,11.2300004959106
269.622,3.92000007629395
269.631,-2.24000000953674
269.641,-0.140000000596046
269.651,10.7800006866455
269.661,27.3700008392334
269.671,44.8000030517578
269.681,66.9200057983398
269.691,90.7200012207031
269.701,99.0800018310547
269.711,101.600006103516
269.721,78.4700012207031
269.731,42.310001373291
269.741,0.420000016689301
269.751,-44.3800010681152
269.761,-82.4900054931641
269.771,-118.300003051758
269.781,-132.820007324219
269.791,-129.850006103516
269.801,-115.43000793457
269.811,-92.7800064086914
269.821,-58.1300010681152
269.829,-13.3000001907349
269.839,32.0900001525879
269.849,57.5700035095215
269.859,77.9400024414062
269.869,97.4700012207031
269.879,125.540008544922
269.889,136.880004882812
269.899,132.580001831055
269.909,122.67000579834
269.919,124.630004882812
269.929,136.18000793457
269.939,119.660003662109
269.949,96.7000045776367
269.959,73.4300003051758
269.969,70.0300064086914
269.979,58.2400016784668
269.989,34.9600028991699
269.999,3.25000023841858
270.009,-17.6000003814697
270.019,-30.0300006866455
270.024,-38.3600006103516
270.034,-37.8000030517578
270.044,-34.9600028991699
270.054,-13.1900005340576
270.064,-3.29000020027161
270.074,1.85000014305115
270.084,-8.71000003814697
270.094,-8.26000022888184
270.104,-13.0200004577637
270.114,-24.6700019836426
270.124,-38.3900032043457
270.134,-39.7900009155273
270.144,-30.6900005340576
270.154,-38.3900032043457
270.164,-38.8500022888184
270.174,-20.6100006103516
270.182,-4.41000032424927
270.192,-27.7900009155273
270.202,-52.5300025939941
270.212,-63.1700019836426
270.222,-66.5
270.232,-94.1800079345703
270.242,-90.3300018310547
270.252,-69.7200012207031
270.262,-44.5500030517578
270.272,-37.060001373291
270.282,-51.3400039672852
270.292,-54.5300025939941
270.302,-39.4800033569336
270.312,-38.0800018310547
270.322,-34.3300018310547
270.332,-22.7500019073486
270.342,-14.0700006484985
270.352,-19.4200000762939
270.362,-28.7700004577637
270.372,-38.1500015258789
270.381,-30.0300006866455
270.391,-30.9000015258789
270.401,-19.6000003814697
270.411,14.5900011062622
270.421,33.7400016784668
270.431,33.4600028991699
270.441,21.5900001525879
270.451,3.53000020980835
270.461,-23.1700019836426
270.471,-56.9400024414062
270.481,-88.6500015258789
270.491,-111.470008850098
270.501,-116.690002441406
270.511,-116.060005187988
270.521,-104.720001220703
270.531,-80.0100021362305
270.541,-48.4700012207031
270.551,-22.4000015258789
270.561,-14.1700010299683
270.571,-9.59000015258789
270.579,-11.5100002288818
270.589,-10.710000038147
270.599,-22.2200012207031
270.609,-22.2600002288818
270.619,-26.1800003051758
270.629,-36.5700035095215
270.639,-29.4300022125244
270.649,-23.480001449585
270.659,-9.3100004196167
270.669,4.69000005722046
270.679,23.0300006866455
270.689,42.310001373291
270.699,39.6500015258789
270.709,24.4600009918213
270.719,-0.940000057220459
270.729,-14.1700010299683
270.739,-17.9200000762939
270.749,-33.2800025939941
270.759,-51.8000030517578
270.769,-76.5400009155273
270.773,-55.8900032043457
270.783,-22.3300018310547
270.793,3.71000027656555
270.803,25.6900005340576
270.813,34.5800018310547
270.823,51.6900024414062
270.833,68.6000061035156
270.843,63.6600036621094
270.853,39.4100036621094
270.863,19.4600009918213
270.873,9.27000045776367
270.883,-4.8600001335144
270.893,-21.4500007629395
270.903,-40.9500007629395
270.913,-53.5100021362305
270.923,-54.2100028991699
270.932,-50.2600021362305
270.942,-60.3000030517578
270.952,-70.0699996948242
270.962,-48.930004119873
270.972,5.39000034332275
270.982,45.6400032043457
270.992,62.370002746582
271.002,61.4900016784668
271.012,66.6399993896484
271.022,79.4500045776367
271.032,72.9000015258789
271.042,22.8900012969971
271.052,-36.1900024414062
271.062,-65.0300064086914
271.072,-69.4000015258789
271.082,-83.1600036621094
271.092,-92.1900024414062
271.102,-113.050003051758
271.112,-130.690002441406
271.122,-114.030006408691
271.13,-83.370002746582
271.14,-50.9200019836426
271.15,-19.1100006103516
271.16,22.7500019073486
271.17,35.4900016784668
271.18,80.8800048828125
271.19,147.560012817383
271.2,198.830001831055
271.21,221.440017700195
271.22,206.250015258789
271.23,177.760009765625
271.24,137.860000610352
271.25,84.5200042724609
271.26,18.5100002288818
271.27,-50.4700012207031
271.28,-102.300003051758
271.29,-121.690002441406
271.3,-130.09001159668
271.31,-130.650009155273
271.32,-117.140007019043
271.329,-109.860008239746
271.339,-102.790008544922
271.349,-115.290008544922
271.359,-146.400009155273
271.369,-172.760009765625
271.379,-186.440002441406
271.389,-203.560012817383
271.399,-215.630004882812
271.409,-206.390014648438
271.419,-183.68000793457
271.429,-124.460006713867
271.439,-51.4100036621094
271.449,-1.82000005245209
271.459,58.1300010681152
271.469,113.360008239746
271.479,137.690002441406
271.489,121.060005187988
271.499,88.3000030517578
271.509,30.730001449585
271.519,-38.7800025939941
271.523,-300.050018310547
271.533,-249.200012207031
271.543,-147.030014038086
271.553,-58.7600021362305
271.563,-3.81000018119812
271.573,51.620002746582
271.583,96.7700042724609
271.593,102.340003967285
271.603,120.120002746582
271.613,120.570007324219
271.623,109.270004272461
271.633,102.900001525879
271.643,82.7000045776367
271.653,53.370002746582
271.663,51.3800010681152
271.673,75.3200073242188
271.682,89.0700073242188
271.692,99.120002746582
271.702,105.980003356934
271.712,91.4200057983398
271.722,66.1500015258789
271.732,22.9600009918213
271.742,-38.5700035095215
271.752,-88.4800033569336
271.762,-120.01000213623
271.772,-126.280006408691
271.782,-121.800003051758
271.792,-113.640007019043
271.802,-99.6800079345703
271.812,-83.3300018310547
271.822,-53.930004119873
271.832,-39.2300033569336
271.842,-50.5700035095215
271.852,-62.7500038146973
271.862,-59.3600044250488
271.872,-52.2500038146973
271.88,-41.7500038146973
271.89,-38.7400016784668
271.9,-50.8500022888184
271.91,-37.5200004577637
271.92,-7.87000036239624
271.93,20.8200016021729
271.94,55.4000015258789
271.95,76.0200042724609
271.96,84.4500045776367
271.97,108.850006103516
271.98,119.070007324219
271.99,107.340003967285
272,102.090003967285
272.01,83.0200042724609
272.02,75.8800048828125
272.03,89.1100006103516
272.04,91.2400054931641
272.05,69.370002746582
272.06,36.6400032043457
272.07,14.8700008392334
272.079,-11.8300008773804
272.089,-54.0700035095215
272.099,-125.540008544922
272.109,-205.200012207031
272.119,-247.480010986328
272.129,-241.810012817383
272.139,-229.210006713867
272.149,-209.93000793457
272.159,-150.320007324219
272.169,-65.8300018310547
272.179,50.0100021362305
272.189,114.690002441406
272.199,124.880004882812
272.209,119.140007019043
272.219,93.1300048828125
272.229,49.2800025939941
272.239,-7.73000049591064
272.249,-74.9700012207031
272.259,-137.440002441406
272.269,-165.900009155273
272.273,-109.970008850098
272.283,-64.120002746582
272.293,-30.2400016784668
272.303,-6.96000051498413
272.313,16.1300010681152
272.323,31.7800006866455
272.333,49.2800025939941
272.343,55.1600036621094
272.353,54.0400009155273
272.363,55.120002746582
272.373,61.2500038146973
272.383,71.9600067138672
272.393,69.3300018310547
272.403,36.3300018310547
272.413,13.8900003433228
272.423,-12.4900007247925
272.432,-36.4700012207031
272.442,-51.5500030517578
272.452,-71.1900024414062
272.462,-80.6000061035156
272.472,-72.9400024414062
272.482,-43.7100028991699
272.492,-14.0300006866455
272.502,15.8900003433228
272.512,34.8900032043457
272.522,56.4500045776367
272.532,77.1000061035156
272.542,75.7000045776367
272.552,68.0400009155273
272.562,50.7100028991699
272.572,29.9900016784668
272.582,3.25000023841858
272.592,-27.6500015258789
272.602,-62.8200035095215
272.612,-94.6700057983398
272.622,-93.1700057983398
272.63,-67.5500030517578
272.64,-43.7800025939941
272.65,27.0500011444092
272.66,67.0600051879883
272.67,93.4800033569336
272.68,101.780006408691
272.69,93.3400039672852
272.7,103.000007629395
272.71,97.2600021362305
272.72,55.2600021362305
272.73,8.61000061035156
272.74,-36.5700035095215
272.75,-68
272.76,-45.5300025939941
272.77,-32.3400001525879
272.78,-46.930004119873
272.79,-31.3200016021729
272.8,-16.6900005340576
272.81,-7.59000015258789
272.82,-21.5200004577637
272.829,-51.0300025939941
272.839,-63.1000022888184
272.849,-47.0000038146973
272.859,-40.1400032043457
272.869,-48.120002746582
272.879,-49.1000022888184
272.889,-38.5
272.899,-11.9300003051758
272.909,10.8500003814697
272.919,15.1900005340576
272.929,23.1000003814697
272.939,18.5100002288818
272.949,30.0300006866455
272.959,34.9600028991699
272.969,24.7400016784668
272.979,12.7700004577637
272.989,-16.8000011444092
272.999,-21.4500007629395
273.009,-28.0700016021729
273.019,-58.0300025939941
273.024,-62.3000030517578
273.034,-47.5300025939941
273.044,3.1800000667572
273.054,39.2300033569336
273.064,47.0700035095215
273.074,29.1900005340576
273.084,34.3000030517578
273.094,21.310001373291
273.104,-7.63000059127808
273.114,-41.5400009155273
273.124,-42.9400024414062
273.134,-39.3000030517578
273.144,-56.5900039672852
273.154,-83.1900024414062
273.164,-74.370002746582
273.174,-67.5500030517578
273.182,-62.0200042724609
273.192,-47.6000022888184
273.202,-26.8400020599365
273.212,-14.1700010299683
273.222,-16.1000003814697
273.232,-23.3800010681152
273.242,-15.7800006866455
273.252,8.43000030517578
273.262,3.95000028610229
273.272,10.5700006484985
273.282,23.3800010681152
273.292,55.5800018310547
273.302,64.8199996948242
273.312,64.0100021362305
273.322,38.4300003051758
273.332,33.0699996948242
273.342,17.4300003051758
273.352,-5.39000034332275
273.362,-23.5500011444092
273.372,-53.8600044250488
273.38,-70.1000061035156
273.39,-107.450004577637
273.4,-133.84001159668
273.41,-145.420013427734
273.42,-140.139999389648
273.43,-99.5400009155273
273.44,-56.5900039672852
273.45,-16.3800010681152
273.46,51.1000022888184
273.47,111.190002441406
273.48,135.940002441406
273.49,137.060012817383
273.5,123.130004882812
273.51,105.910003662109
273.52,63.7000045776367
273.53,11.1300001144409
273.54,-31.1100006103516
273.55,-52.7400016784668
273.56,-90.3000030517578
273.57,-119.520004272461
273.579,-98.9100036621094
273.589,-122.950004577637
273.599,-141.710006713867
273.609,-128.170013427734
273.619,-111.580001831055
273.629,-110.950004577637
273.639,-93.5900039672852
273.649,-63.3800048828125
273.659,-42.0300025939941
273.669,2.34000015258789
273.679,44.0300025939941
273.689,81.8600006103516
273.699,105.560005187988
273.709,90.7900009155273
273.719,63.4200019836426
273.729,45.7400016784668
273.739,1.19000005722046
273.749,-54.7000007629395
273.759,-84.5900039672852
273.769,-89.5600051879883
273.773,124.490005493164
273.783,183.150009155273
273.793,246.010009765625
273.803,269.220001220703
273.813,266.800018310547
273.823,283.040008544922
273.833,265.720001220703
273.843,217.350006103516
273.853,181.260009765625
273.863,146.510009765625
273.873,106.26000213623
273.883,79.870002746582
273.893,75.8800048828125
273.903,84.3800048828125
273.913,95.7200012207031
273.923,94.9200057983398
273.932,88.1300048828125
273.942,66.0100021362305
273.952,35.4200019836426
273.962,12.0400009155273
273.972,-14.8700008392334
273.982,-41.120002746582
273.992,-57.430004119873
274.002,-66.25
274.012,-79.5500030517578
274.022,-82.6300048828125
274.032,-73.7400054931641
274.042,-69.2600021362305
274.052,-77.4500045776367
274.062,-93.1700057983398
274.072,-112.730003356934
274.082,-126.210006713867
274.092,-118.050003051758
274.102,-99.9900054931641
274.112,-83.9600067138672
274.122,-54.4200019836426
274.13,-4.01999998092651
274.14,37.1300010681152
274.15,51.5200042724609
274.16,47.2100028991699
274.17,44.3800010681152
274.18,37.9700012207031
274.19,7.21000051498413
274.2,-31.1500015258789
274.21,-76.4000015258789
274.22,-134.120010375977
274.23,-170.380004882812
274.24,-182.170013427734
274.25,-199.570007324219
274.26,-221.160003662109
274.27,-213.110015869141
274.28,-182.070007324219
274.29,-129.290008544922
274.3,-53.7200012207031
274.31,3.25000023841858
274.32,34.2600021362305
274.329,56.2800025939941
274.339,52.7800025939941
274.349,42.7000007629395
274.359,12.3900003433228
274.369,-27.7200012207031
274.379,-38.3200035095215
274.389,-27.7900009155273
274.399,-12.6300010681152
274.409,6.6100001335144
274.419,20.4000015258789
274.429,36.2600021362305
274.439,82.1100006103516
274.449,121.200004577637
274.459,130.270004272461
274.469,133.490005493164
274.479,123.76000213623
274.489,102.300003051758
274.499,64.8500061035156
274.509,-10.9500007629395
274.519,-65.1000061035156
274.523,-168.140014648438
274.533,-174.510009765625
274.543,-143.290008544922
274.553,-108.390007019043
274.563,-80.1500015258789
274.573,-14.8000011444092
274.583,55.3300018310547
274.593,109.620002746582
274.603,165.480010986328
274.613,210.910003662109
274.623,207.760009765625
274.633,157.220001220703
274.643,81.5800018310547
274.653,3.74000024795532
274.663,-87.640007019043
274.673,-171.460006713867
274.682,-221.34001159668
274.692,-266.52001953125
274.702,-293.330017089844
274.712,-318.880004882812
274.722,-326.790008544922
274.732,-319.480010986328
274.742,-260.610015869141
274.752,-120.780006408691
274.762,38.25
274.772,113.43000793457
274.782,170.100006103516
274.792,218.470016479492
274.802,205.800003051758
274.812,165.620010375977
274.822,117.910003662109
274.832,42.5200004577637
274.842,-64.9200057983398
274.852,-122.460006713867
274.862,-141.150009155273
274.872,-172.410003662109
274.88,-205.870010375977
274.89,-193.020004272461
274.9,-108.080001831055
274.91,-68.5600051879883
274.92,-54.7000007629395
274.93,-24.3900012969971
274.94,3.1100001335144
274.95,37.8000030517578
274.96,80.4300003051758
274.97,117.250007629395
274.98,115.360008239746
274.99,142.620010375977
275,188.09001159668
275.01,195.510009765625
275.02,170.240005493164
275.03,137.270004272461
275.04,86.2700042724609
275.05,24.0100002288818
275.06,-36.2200012207031
275.07,-96.6300048828125
275.079,-125.440002441406
275.089,-146.470001220703
275.099,-166.250015258789
275.109,-166.530014038086
275.119,-175.420013427734
275.129,-171.780014038086
275.139,-141.889999389648
275.149,-118.160003662109
275.159,-102.480003356934
275.169,-73.7100067138672
275.179,-49.0000038146973
275.189,-19.3900012969971
275.199,30.8000011444092
275.209,73.4600067138672
275.219,100.940002441406
275.229,149.410003662109
275.239,187.250015258789
275.249,173.460006713867
275.259,144.160003662109
275.269,100.130004882812
275.273,-50.5400009155273
275.283,-53.4800033569336
275.293,-58.7600021362305
275.303,-72.3400039672852
275.313,-84.7700042724609
275.323,-75.1800003051758
275.333,-48.8900032043457
275.343,-15.0100011825562
275.353,34.3000030517578
275.363,71.4300003051758
275.373,109.93000793457
275.383,152.460006713867
275.393,145.490005493164
275.403,96.2500076293945
275.413,31.9200019836426
275.423,-30.2000007629395
275.431,-90.0500030517578
275.441,-114.800003051758
275.451,-104.090003967285
275.461,-110.280006408691
275.471,-98.870002746582
275.481,-67.7900009155273
275.491,-37.3400001525879
275.501,13.4000005722046
275.511,65.4500045776367
275.521,111.610008239746
275.531,117.350006103516
275.541,108.530006408691
275.551,111.400001525879
275.561,90.6100006103516
275.571,61.3200035095215
275.581,38.2900009155273
275.591,10.8800001144409
275.601,-16.7600002288818
275.611,-21.7700004577637
275.621,-40.4200019836426
275.63,-63.1400032043457
275.64,-50.1900024414062
275.65,-34.120002746582
275.66,-28.4900016784668
275.67,-17.5300006866455
275.68,12.0400009155273
275.69,11.6900005340576
275.7,6.05000019073486
275.71,-11.7600002288818
275.72,-41.1900024414062
275.73,-43.5400009155273
275.74,1.22000002861023
275.75,31.1500015258789
275.76,-29.2900009155273
275.77,-68.6700057983398
275.78,-75.4900054931641
275.79,-46.5800018310547
275.8,-74.3000030517578
275.81,-108.92000579834
275.82,-105.800003051758
275.829,-87.3200073242188
275.839,-82.4600067138672
275.849,-79.0300064086914
275.859,-70.1000061035156
275.869,-57.2900009155273
275.879,-39.2700004577637
275.889,-36.2600021362305
275.899,-58.3800010681152
275.909,-67.1600036621094
275.919,-50.8200035095215
275.929,-39.9700012207031
275.939,-27.4700012207031
275.949,14.2800006866455
275.959,73.9200057983398
275.969,114.520004272461
275.979,125.790008544922
275.989,118.470008850098
275.999,99.7500076293945
276.009,66.2900009155273
276.019,23.4500007629395
276.023,44.5500030517578
276.033,97.9300079345703
276.043,153.120010375977
276.053,193.860015869141
276.063,229.880004882812
276.073,251.02001953125
276.083,256.860015869141
276.093,232.290008544922
276.103,185.320007324219
276.113,121.130004882812
276.123,48.1600036621094
276.133,6.89000034332275
276.143,-20.230001449585
276.153,-47.4900016784668
276.163,-68.8800048828125
276.173,-45.6400032043457
276.181,-19.7700004577637
276.191,-3.15000009536743
276.201,18.0900001525879
276.211,45.2200012207031
276.221,63.9400024414062
276.231,75.7400054931641
276.241,88.3000030517578
276.251,114.520004272461
276.261,145.070007324219
276.271,168.940002441406
276.281,192.460006713867
276.291,227.950012207031
276.301,259.070007324219
276.311,268.480010986328
276.321,274.640014648438
276.331,279.540008544922
276.341,278.560028076172
276.351,259.170013427734
276.361,247.380004882812
276.371,219.100006103516
276.38,194.530014038086
276.39,180.210006713867
276.4,141.080001831055
276.41,96.7400054931641
276.42,54.4600028991699
276.43,9.34000015258789
276.44,-38.6400032043457
276.45,-87.6700057983398
276.46,-124.390007019043
276.47,-133.84001159668
276.48,-123.790008544922
276.49,-107.410003662109
276.5,-84.0700073242188
276.51,-35.0300025939941
276.52,-1.05000007152557
276.53,19.3500003814697
276.54,40
276.55,59.9900016784668
276.56,88.9700012207031
276.57,101.360008239746
276.579,122.290008544922
276.589,116.440002441406
276.599,133.560012817383
276.609,156.520004272461
276.619,155.540008544922
276.629,162.890014648438
276.639,134.43000793457
276.649,121.100006103516
276.659,100.130004882812
276.669,81.5500030517578
276.679,54.3500022888184
276.689,39.060001373291
276.699,42.3500022888184
276.709,40.0400009155273
276.719,47.0400009155273
276.729,42.2100028991699
276.739,59.430004119873
276.749,72.4500045776367
276.759,70.2400054931641
276.769,73.9500045776367
276.774,98.2400054931641
276.784,110.390007019043
276.794,139.300003051758
276.804,147.910003662109
276.814,149.410003662109
276.824,130.900009155273
276.834,84.7300033569336
276.844,44.2000007629395
276.854,0.520000040531158
276.864,-57.4000015258789
276.874,-98.0300064086914
276.884,-136.110000610352
276.894,-134.470001220703
276.904,-119.630004882812
276.914,-116.650009155273
276.924,-92.0800018310547
276.931,-60.4100036621094
276.941,-15.3300008773804
276.951,23.060001373291
276.961,41.0500030517578
276.971,49.310001373291
276.981,52.7400016784668
276.991,58.060001373291
277.001,60.0900039672852
277.011,43.0500030517578
277.021,22.1500015258789
277.031,14.2100009918213
277.041,9.10000038146973
277.051,14.0000009536743
277.061,14.3500003814697
277.071,-16.310001373291
277.081,-53.7600021362305
277.091,-85.3600006103516
277.101,-122.710006713867
277.111,-148.68000793457
277.121,-179.370010375977
277.13,-215.740005493164
277.14,-234.920013427734
277.15,-230.93000793457
277.16,-207.720016479492
277.17,-167.370010375977
277.18,-125.860008239746
277.19,-84.4200057983398
277.2,-30.9400005340576
277.21,41.2300033569336
277.22,105.070007324219
277.23,180.110015869141
277.24,210.310012817383
277.25,194.320007324219
277.26,155.260009765625
277.27,114.620002746582
277.28,104.050003051758
277.29,72.6600036621094
277.3,15.5000009536743
277.31,-62.7200012207031
277.32,-94.9500045776367
277.329,-81.7200012207031
277.339,-35.2100028991699
277.349,27.5400009155273
277.359,84.8400039672852
277.369,138.560012817383
277.379,201.420013427734
277.389,278.490020751953
277.399,329.420013427734
277.409,338.52001953125
277.419,300.470001220703
277.429,247.870010375977
277.439,188.750015258789
277.449,115.290008544922
277.459,59.2200012207031
277.469,9.13000011444092
277.479,-30.7600021362305
277.489,-32.7600021362305
277.499,-11.8600006103516
277.509,37.060001373291
277.519,93.2700042724609
277.523,23.3400020599365
277.533,-32.3400001525879
277.543,-101.740005493164
277.553,-164.740005493164
277.563,-206.040008544922
277.573,-207.09001159668
277.583,-188.720016479492
277.593,-142.130004882812
277.603,-108.01000213623
277.613,-71.1900024414062
277.623,-20.0500011444092
277.633,22.8200016021729
277.643,56.7300033569336
277.653,86.3100051879883
277.663,95.370002746582
277.673,82.9100036621094
277.681,61.6000022888184
277.691,46.7600021362305
277.701,13.8900003433228
277.711,-14.2100009918213
277.721,-27.7900009155273
277.731,-40.7700004577637
277.741,-29.9600009918213
277.751,-3.39000010490417
277.761,15.0100011825562
277.771,62.7900047302246
277.781,102.130004882812
277.791,138.630004882812
277.801,192.850006103516
277.811,197.780014038086
277.821,161.070007324219
277.831,126.800003051758
277.841,87.390007019043
277.851,14.9800004959106
277.861,-45.7400016784668
277.871,-101.01000213623
277.88,-146.230010986328
277.89,-136.5
277.9,-90.2600021362305
277.91,-45.2900009155273
277.92,6.6100001335144
277.93,68.5600051879883
277.94,144.760009765625
277.95,214.130004882812
277.96,264.630004882812
277.97,274.75
277.98,244.960006713867
277.99,215.84001159668
278,179.160003662109
278.01,119.140007019043
278.02,58.9000015258789
278.03,2.41000008583069
278.04,-46.1300010681152
278.05,-77.4200057983398
278.06,-95.6900024414062
278.07,-107.620002746582
278.079,-103.320007324219
278.089,-91.4500045776367
278.099,-84.3500061035156
278.109,-68.390007019043
278.119,-45.810001373291
278.129,-28.1000003814697
278.139,-30.6900005340576
278.149,-47.6300010681152
278.159,-74.0200042724609
278.169,-109.51000213623
278.179,-129.920013427734
278.189,-163.830001831055
278.199,-207.970016479492
278.209,-222.910003662109
278.219,-204.890014648438
278.229,-152.18000793457
278.239,-96.6000061035156
278.249,-46.8300018310547
278.259,0.660000026226044
278.269,34.8600006103516
278.273,87.5300064086914
278.283,99.4700012207031
278.293,119.140007019043
278.303,128.800003051758
278.313,124.000007629395
278.323,114.940002441406
278.333,141.43000793457
278.343,197.330001831055
278.353,247.660018920898
278.363,279.230010986328
278.373,270.830017089844
278.383,227.600006103516
278.393,197.330001831055
278.403,195.960006713867
278.413,178.670013427734
278.423,157.670013427734
278.431,152.980010986328
278.441,152.700012207031
278.451,136.880004882812
278.461,117.490005493164
278.471,89.1100006103516
278.481,47.4600028991699
278.491,21.2100009918213
278.501,-9.59000015258789
278.511,-58.2400016784668
278.521,-93.0600051879883
278.531,-110.630004882812
278.541,-108.710006713867
278.551,-105.520004272461
278.561,-93.0600051879883
278.571,-80.7800064086914
278.581,-56.310001373291
278.591,-14.9100008010864
278.601,12.2800006866455
278.611,8.28999996185303
278.621,-1.75000011920929
278.63,-3.92000007629395
278.64,-16.480001449585
278.65,-19.8400001525879
278.66,-44.1000022888184
278.67,-60.7900047302246
278.68,-50.2200012207031
278.69,-24.5300006866455
278.7,-6.68000030517578
278.71,5.53000020980835
278.72,24.7800006866455
278.73,44.3800010681152
278.74,62.5100021362305
278.75,59.3600044250488
278.76,47.1100006103516
278.77,38.5
278.78,37.3800010681152
278.79,29.6400012969971
278.8,20.6800003051758
278.81,-1.89000010490417
278.82,-26.3200016021729
278.829,-23.8000011444092
278.839,-28.560001373291
278.849,-36.7100028991699
278.859,-52.1100006103516
278.869,-75.0400009155273
278.879,-77.9100036621094
278.889,-76.0200042724609
278.899,-82.1800003051758
278.909,-115.67000579834
278.919,-136.810012817383
278.929,-139.720001220703
278.939,-122.990005493164
278.949,-89.6300048828125
278.959,-67.620002746582
278.969,-41.4700012207031
278.979,-17.5
278.989,17.5700016021729
278.999,41.7200012207031
279.009,76.4700012207031
279.019,107.690002441406
279.023,207.620010375977
279.033,202.750015258789
279.043,183.640014648438
279.053,192.600006103516
279.063,132.440002441406
279.073,125.580009460449
279.083,177.030014038086
279.093,122.150009155273
279.103,-17.7400016784668
279.113,-22.5400009155273
279.123,-52.2500038146973
279.133,-40.4900016784668
279.143,-29.9900016784668
279.153,7.38000011444092
279.163,29.8200016021729
279.173,101.43000793457
279.181,159.980010986328
279.191,197.960006713867
279.201,224.630004882812
279.211,233.660003662109
279.221,199.290008544922
279.231,194.250015258789
279.241,233.34001159668
279.251,200.690002441406
279.261,114.240005493164
279.271,-15.6800003051758
279.281,-181.790008544922
279.291,-280.310028076172
279.301,-305.27001953125
279.311,-334.740020751953
279.321,-331.480010986328
279.331,-286.790008544922
279.341,-204.330017089844
279.351,-97.1900024414062
279.361,33.0699996948242
279.371,149.550003051758
279.38,203.700012207031
279.39,221.230010986328
279.4,252.490005493164
279.41,265.330017089844
279.42,214.09001159668
279.43,124.880004882812
279.44,4.76000022888184
279.45,-93.7300033569336
279.46,-140.770004272461
279.47,-186.410003662109
279.48,-220.43000793457
279.49,-229.700012207031
279.5,-213.530014038086
279.51,-157.390014648438
279.52,-90.1600036621094
279.53,-28.560001373291
279.54,29.7500019073486
279.55,88.7900009155273
279.56,132.050003051758
279.57,151.970001220703
279.574,68.4200057983398
279.584,47.2800025939941
279.594,42.7300033569336
279.604,32.4400024414062
279.614,21.8000011444092
279.624,24.6700019836426
279.634,19.0700016021729
279.644,24.9500007629395
279.654,33.4600028991699
279.664,35.3500022888184
279.674,29.4300022125244
279.684,28.0700016021729
279.694,13.0500001907349
279.704,6.44000053405762
279.714,5.18000030517578
279.724,1.19000005722046
279.732,-15.2200002670288
279.742,-20.4000015258789
279.752,-13.3700008392334
279.762,-5
279.772,-13.0200004577637
279.782,-11.0600004196167
279.792,-8.15000057220459
279.802,-17.9500007629395
279.812,-24.4600009918213
279.822,-22.3300018310547
279.832,-24.2900009155273
279.842,-35.3500022888184
279.852,-47.3500022888184
279.862,-47.8400039672852
279.872,-44.9400024414062
279.882,-45.4300003051758
279.892,-37.310001373291
279.902,-20.2600002288818
279.912,-0.870000064373016
279.922,-0.730000019073486
279.931,6.54000043869019
279.941,25.4100017547607
279.951,13.2600002288818
279.961,-5.8100004196167
279.971,-0.840000033378601
279.981,-2.24000000953674
279.991,-10.0400009155273
280.001,-16.730001449585
280.011,-13.1900005340576
280.021,-11.8300008773804
280.031,-15.1200008392334
280.041,-6.30000019073486
280.051,2.03000020980835
280.061,1.00999999046326
280.071,-6.54000043869019
280.081,-6.65000009536743
280.091,-5.21000003814697
280.101,-22.4700012207031
280.111,-38.0400009155273
280.121,-43.6400032043457
280.13,-54.0400009155273
280.14,-63.3500022888184
280.15,-50.9600028991699
280.16,-45.1800003051758
280.17,-33.810001373291
280.18,-8.78000068664551
280.19,17.6400012969971
280.2,26.3200016021729
280.21,30.8700008392334
280.22,43.4700012207031
280.23,49.4900016784668
280.24,32.370002746582
280.25,19.7000007629395
280.26,7.87000036239624
280.27,-9.20000076293945
280.28,-9.69000053405762
280.29,-8.32999992370605
280.3,-14.5600004196167
280.31,-18.5100002288818
280.32,-10.9900007247925
280.324,-5.8100004196167
280.334,1.33000004291534
280.344,14.9400005340576
280.354,16.6200008392334
280.364,11.9000005722046
280.374,15.6800003051758
280.384,18.7900009155273
280.394,11.5500001907349
280.404,7.24000024795532
280.414,9.55000019073486
280.424,15.5700006484985
280.434,17.7800006866455
280.444,28.8000011444092
280.454,21.8400001525879
280.464,21.980001449585
280.474,28.6300010681152
280.482,33.1800003051758
280.492,60.6500015258789
280.502,38.3200035095215
280.512,22.4700012207031
280.522,-7.10000038146973
280.532,-63.560001373291
280.542,-74.9300003051758
280.552,-85.5700073242188
280.562,-106.470008850098
280.572,-109.970008850098
280.582,-66.0800018310547
280.592,-21.3500003814697
280.602,-11.7200002670288
280.612,41.6500015258789
280.622,56.8000030517578
280.632,50.7100028991699
280.642,90.2300033569336
280.652,90.0200042724609
280.662,38.6700019836426
280.672,14.3800010681152
280.681,-3.71000027656555
280.691,-8.82000064849854
280.701,-10.9500007629395
280.711,-30.6200008392334
280.721,-53.5800018310547
280.731,-57.0500030517578
280.741,-61.9100036621094
280.751,-72.8000030517578
280.761,-91.1000061035156
280.771,-113.470008850098
280.781,-116.51000213623
280.791,-112.310005187988
280.801,-65.9000015258789
280.811,-16.8700008392334
280.821,-2.97000002861023
280.831,24.7100009918213
280.841,72.5900039672852
280.851,69.8199996948242
280.861,62.1600036621094
280.871,24.0800018310547
280.88,-3.85000014305115
280.89,14.0300006866455
280.9,-23.3400020599365
280.91,-58.3800010681152
280.92,-45.7400016784668
280.93,-38.810001373291
280.94,-27.1200008392334
280.95,-26.0000019073486
280.96,-83.2600021362305
280.97,-97.1900024414062
280.98,-42.1700019836426
280.99,-12.3900003433228
281,40.4200019836426
281.01,77.4200057983398
281.02,103.250007629395
281.03,135.550003051758
281.04,134.050003051758
281.05,104.050003051758
281.06,85.3600006103516
281.07,53.4100036621094
281.074,-57.9600028991699
281.084,-38.1500015258789
281.094,-24.2500019073486
281.104,11.2300004959106
281.114,64.0500030517578
281.124,85.1900024414062
281.134,105.070007324219
281.144,120.990005493164
281.154,102.690002441406
281.164,90.7200012207031
281.174,72.0600051879883
281.184,32.7900009155273
281.194,-10.710000038147
281.204,-43.6400032043457
281.214,-73.0400009155273
281.224,-99.0800018310547
281.232,-110.910003662109
281.242,-116.130004882812
281.252,-119.520004272461
281.262,-101.570007324219
281.272,-57.8900032043457
281.282,-31.0100021362305
281.292,-11.7600002288818
281.302,19.810001373291
281.312,34.3300018310547
281.322,48.7200012207031
281.332,66.7400054931641
281.342,59.8500022888184
281.352,61.8800010681152
281.362,73.1800003051758
281.372,59.2500038146973
281.382,40.0700035095215
281.392,17.4600009918213
281.402,-10.8100004196167
281.412,-36.9200019836426
281.422,-47.9800033569336
281.431,-74.3400039672852
281.441,-109.790008544922
281.451,-132.580001831055
281.461,-131.670013427734
281.471,-125.720008850098
281.481,-103.140007019043
281.491,-71.120002746582
281.501,-56.6600036621094
281.511,-12.7400007247925
281.521,32.370002746582
281.531,25.6200008392334
281.541,17.3200016021729
281.551,17.7800006866455
281.561,-6.16000032424927
281.571,-10.1800003051758
281.581,-13.3300008773804
281.591,-60.1300010681152
281.601,-69.890007019043
281.611,-68.4200057983398
281.621,-96.0400009155273
281.63,-114.76000213623
281.64,-124.950004577637
281.65,-147.940002441406
281.66,-148.75
281.67,-133.59001159668
281.68,-116.900009155273
281.69,-84.5600051879883
281.7,-20.5100002288818
281.71,72.5200042724609
281.72,153.890014648438
281.73,204.050003051758
281.74,240.59001159668
281.75,242.300018310547
281.76,203.910003662109
281.77,134.360000610352
281.78,24.3900012969971
281.79,10.3600006103516
281.8,157.740005493164
281.81,183.010009765625
281.82,28.9100017547607
281.825,-283.950012207031
281.835,-328.440002441406
281.845,-273.240020751953
281.855,-187.910003662109
281.865,-195.610015869141
281.875,-250.320007324219
281.885,-181.610015869141
281.895,-52.1500015258789
281.905,47.4200019836426
281.915,159.18000793457
281.925,304.360015869141
281.935,366.480010986328
281.945,326.060028076172
281.955,193.790008544922
281.965,71.640007019043
281.975,-12.1100006103516
281.982,-99.120002746582
281.992,-118.440002441406
282.002,-106.290008544922
282.012,-40.1400032043457
282.022,236.810012817383
282.032,413.590026855469
282.042,345.830017089844
282.052,310.660003662109
282.062,251.890014648438
282.072,127.470008850098
282.082,64.1900024414062
282.092,7.35000038146973
282.102,-126.070007324219
282.112,-191.870010375977
282.122,-192.320007324219
282.132,-198.130004882812
282.142,-161.870010375977
282.152,-123.900009155273
282.162,-127.890007019043
282.172,-138.25
282.181,-7.73000049591064
282.191,184.060012817383
282.201,277.370025634766
282.211,264.809997558594
282.221,184.620010375977
282.231,130.790008544922
282.241,57.430004119873
282.251,-50.5400009155273
282.261,-117.950004577637
282.271,-143.5
282.281,-153.650009155273
282.291,-134.68000793457
282.301,-117.810005187988
282.311,-132.050003051758
282.321,-99.1500015258789
