Time,AccelerometerX
135.309,-0.447509765625
135.312,-0.7734375
135.322,-0.455078125
135.332,-0.10418701171875
135.342,0.184814453125
135.352,0.329833984375
135.362,0.299560546875
135.372,0.1290283203125
135.382,-0.11553955078125
135.392,-0.37158203125
135.402,-0.5849609375
135.412,-0.71435546875
135.422,-0.73828125
135.432,-0.66943359375
135.442,-0.5478515625
135.452,-0.4052734375
135.462,-0.26220703125
135.478,-0.1536865234375
135.488,-0.115234375
135.498,-0.161865234375
135.508,-0.28125
135.518,-0.439697265625
135.528,-0.59716796875
135.538,-0.7109375
135.548,-0.755859375
135.558,-0.7421875
135.568,-0.705078125
135.578,-0.671875
135.588,-0.63134765625
135.598,-0.55419921875
135.608,-0.44580078125
135.618,-0.345703125
135.628,-0.283447265625
135.638,-0.257080078125
135.648,-0.2401123046875
135.658,-0.2161865234375
135.668,-0.192138671875
135.677,-0.177734375
135.687,-0.173583984375
135.697,-0.16455078125
135.707,-0.1337890625
135.717,-0.0894775390625
135.727,-0.057464599609375
135.737,-0.0546875
135.747,-0.08489990234375
135.757,-0.1563720703125
135.767,-0.285888671875
135.777,-0.473388671875
135.787,-0.68212890625
135.797,-0.86669921875
135.807,-0.9921875
135.817,-1.0263671875
135.827,-0.9619140625
135.837,-0.82763671875
135.847,-0.671875
135.857,-0.54541015625
135.867,-0.46923828125
135.871,-0.32568359375
135.881,-0.34765625
135.891,-0.36669921875
135.901,-0.372314453125
135.911,-0.378173828125
135.921,-0.4072265625
135.931,-0.461181640625
135.941,-0.51806640625
135.951,-0.5615234375
135.961,-0.59765625
135.971,-0.6357421875
135.981,-0.6708984375
135.991,-0.67822265625
136.001,-0.6171875
136.011,-0.47314453125
136.021,-0.282958984375
136.03,-0.109130859375
136.04,-0.00172805786132812
136.05,0.0222930908203125
136.06,-0.01690673828125
136.07,-0.08648681640625
136.08,-0.16748046875
136.09,-0.26416015625
136.1,-0.38330078125
136.11,-0.5078125
136.12,-0.603515625
136.13,-0.6416015625
136.14,-0.6201171875
136.15,-0.56298828125
136.16,-0.490234375
136.17,-0.40869140625
136.18,-0.33935546875
136.19,-0.306640625
136.2,-0.31640625
136.21,-0.357666015625
136.22,-0.413330078125
136.228,-0.474365234375
136.238,-0.52734375
136.248,-0.5517578125
136.258,-0.54833984375
136.268,-0.5439453125
136.278,-0.57568359375
136.288,-0.64697265625
136.298,-0.72216796875
136.308,-0.7783203125
136.318,-0.80712890625
136.328,-0.806640625
136.338,-0.779296875
136.348,-0.72021484375
136.358,-0.6337890625
136.368,-0.54443359375
136.378,-0.484619140625
136.388,-0.478515625
136.398,-0.51513671875
136.408,-0.54150390625
136.418,-0.50244140625
136.427,-0.392333984375
136.437,-0.264404296875
136.447,-0.190185546875
136.457,-0.2060546875
136.467,-0.295654296875
136.477,-0.419921875
136.487,-0.552734375
136.497,-0.67919921875
136.507,-0.77099609375
136.517,-0.7919921875
136.527,-0.72900390625
136.537,-0.603515625
136.547,-0.465087890625
136.557,-0.371826171875
136.567,-0.35400390625
136.577,-0.395263671875
136.587,-0.4638671875
136.597,-0.55224609375
136.607,-0.677734375
136.617,-0.8330078125
136.621,-0.5244140625
136.631,-0.43310546875
136.641,-0.42041015625
136.651,-0.45654296875
136.661,-0.53271484375
136.671,-0.671875
136.681,-0.87548828125
136.691,-1.078125
136.701,-1.1728515625
136.711,-1.08984375
136.721,-0.86181640625
136.731,-0.59033203125
136.741,-0.373046875
136.751,-0.24658203125
136.761,-0.1986083984375
136.771,-0.2044677734375
136.78,-0.256103515625
136.79,-0.3515625
136.8,-0.4736328125
136.81,-0.59375
136.82,-0.69873046875
136.83,-0.802734375
136.84,-0.93017578125
136.85,-1.0810546875
136.86,-1.203125
136.87,-1.2294921875
136.88,-1.1396484375
136.89,-0.97900390625
136.9,-0.8076171875
136.91,-0.66357421875
136.92,-0.55029296875
136.93,-0.4599609375
136.94,-0.41455078125
136.95,-0.45263671875
136.96,-0.58056640625
136.97,-0.74755859375
136.978,-0.86865234375
136.988,-0.89013671875
136.998,-0.82470703125
137.008,-0.72314453125
137.018,-0.61865234375
137.028,-0.51513671875
137.038,-0.41748046875
137.048,-0.35205078125
137.058,-0.359619140625
137.068,-0.458740234375
137.078,-0.61474609375
137.088,-0.75
137.098,-0.8056640625
137.108,-0.79345703125
137.118,-0.7744140625
137.128,-0.78955078125
137.138,-0.8115234375
137.148,-0.7841796875
137.158,-0.69287109375
137.168,-0.58056640625
137.177,-0.50537109375
137.187,-0.488525390625
137.197,-0.49951171875
137.207,-0.5
137.217,-0.49169921875
137.227,-0.497802734375
137.237,-0.53076171875
137.247,-0.576171875
137.257,-0.599609375
137.267,-0.5810546875
137.277,-0.53857421875
137.287,-0.5126953125
137.297,-0.5244140625
137.307,-0.55517578125
137.317,-0.5712890625
137.327,-0.5625
137.337,-0.54541015625
137.347,-0.544921875
137.357,-0.57080078125
137.367,-0.6064453125
137.371,-0.53564453125
137.381,-0.53173828125
137.391,-0.51708984375
137.401,-0.489013671875
137.411,-0.46826171875
137.421,-0.471435546875
137.431,-0.4814453125
137.441,-0.468505859375
137.451,-0.4248046875
137.461,-0.369384765625
137.471,-0.340087890625
137.481,-0.36474609375
137.491,-0.427490234375
137.501,-0.47998046875
137.511,-0.48291015625
137.521,-0.434326171875
137.53,-0.36865234375
137.54,-0.328857421875
137.55,-0.326416015625
137.56,-0.339599609375
137.57,-0.344482421875
137.58,-0.3486328125
137.59,-0.38818359375
137.6,-0.478515625
137.61,-0.58251953125
137.62,-0.638671875
137.63,-0.61572265625
137.64,-0.5341796875
137.65,-0.451904296875
137.66,-0.423583984375
137.67,-0.46533203125
137.68,-0.5439453125
137.69,-0.60205078125
137.7,-0.6015625
137.71,-0.54931640625
137.72,-0.489013671875
137.728,-0.464111328125
137.738,-0.4833984375
137.748,-0.517578125
137.758,-0.5419921875
137.768,-0.560546875
137.778,-0.59130859375
137.788,-0.64013671875
137.798,-0.681640625
137.808,-0.685546875
137.818,-0.658203125
137.828,-0.64013671875
137.838,-0.6728515625
137.848,-0.7578125
137.858,-0.8447265625
137.868,-0.85693359375
137.878,-0.744140625
137.888,-0.515625
137.898,-0.2269287109375
137.908,0.046722412109375
137.918,0.2279052734375
137.927,0.2568359375
137.937,0.12249755859375
137.947,-0.11968994140625
137.957,-0.37744140625
137.967,-0.580078125
137.977,-0.6953125
137.987,-0.71533203125
137.997,-0.65283203125
138.007,-0.54296875
138.017,-0.433837890625
138.027,-0.36767578125
138.037,-0.36767578125
138.047,-0.424560546875
138.057,-0.501953125
138.067,-0.5634765625
138.077,-0.59375
138.087,-0.59912109375
138.097,-0.58935546875
138.107,-0.580078125
138.117,-0.591796875
138.121,-0.587890625
138.131,-0.50146484375
138.141,-0.431396484375
138.151,-0.39306640625
138.161,-0.393310546875
138.171,-0.4296875
138.181,-0.49853515625
138.191,-0.599609375
138.201,-0.7333984375
138.211,-0.89306640625
138.221,-1.0634765625
138.231,-1.2255859375
138.241,-1.369140625
138.251,-1.4931640625
138.261,-1.5947265625
138.271,-1.6630859375
138.279,-1.69921875
138.289,-1.7314453125
138.299,-1.7939453125
138.309,-1.908203125
138.319,-2.05078125
138.329,-2.150390625
138.339,-2.15234375
138.349,-2.05859375
138.359,-1.939453125
138.369,-1.8349609375
138.379,-1.7197265625
138.389,-1.5478515625
138.399,-1.31640625
138.409,-1.0703125
138.419,-0.85009765625
138.429,-0.6650390625
138.439,-0.49951171875
138.449,-0.33154296875
138.459,-0.1649169921875
138.469,-0.044219970703125
138.478,-0.0130081176757812
138.488,-0.06280517578125
138.498,-0.1412353515625
138.508,-0.1912841796875
138.518,-0.1871337890625
138.528,-0.154296875
138.538,-0.1480712890625
138.548,-0.2022705078125
138.558,-0.311279296875
138.568,-0.4521484375
138.578,-0.60205078125
138.588,-0.736328125
138.598,-0.83056640625
138.608,-0.8740234375
138.618,-0.87744140625
138.628,-0.861328125
138.638,-0.8408203125
138.648,-0.82080078125
138.658,-0.80029296875
138.668,-0.775390625
138.677,-0.73828125
138.687,-0.67626953125
138.697,-0.5673828125
138.707,-0.39111328125
138.717,-0.151123046875
138.727,0.12158203125
138.737,0.379638671875
138.747,0.58203125
138.757,0.6982421875
138.767,0.69482421875
138.777,0.544921875
138.787,0.24951171875
138.797,-0.1612548828125
138.807,-0.625
138.817,-1.0625
138.827,-1.4091796875
138.837,-1.6328125
138.847,-1.7236328125
138.857,-1.6943359375
138.867,-1.568359375
138.871,-0.3349609375
138.881,-0.00295639038085938
138.891,0.34228515625
138.901,0.66015625
138.911,0.9140625
138.921,1.0927734375
138.931,1.203125
138.941,1.23828125
138.951,1.171875
138.961,0.97119140625
138.971,0.63232421875
138.981,0.195068359375
138.991,-0.271484375
139.001,-0.7001953125
139.011,-1.0576171875
139.021,-1.3505859375
139.029,-1.595703125
139.039,-1.7890625
139.049,-1.892578125
139.059,-1.8525390625
139.069,-1.6328125
139.079,-1.251953125
139.089,-0.7724609375
139.099,-0.273193359375
139.109,0.1572265625
139.119,0.4326171875
139.129,0.49853515625
139.139,0.35205078125
139.149,0.032623291015625
139.159,-0.39306640625
139.169,-0.83837890625
139.179,-1.208984375
139.189,-1.423828125
139.199,-1.421875
139.209,-1.177734375
139.219,-0.7353515625
139.228,-0.208984375
139.238,0.27734375
139.248,0.6474609375
139.258,0.8779296875
139.268,0.9716796875
139.278,0.935546875
139.288,0.78076171875
139.298,0.52001953125
139.308,0.1602783203125
139.318,-0.28466796875
139.328,-0.779296875
139.338,-1.26171875
139.348,-1.66015625
139.358,-1.912109375
139.368,-1.9833984375
139.378,-1.8603515625
139.388,-1.55859375
139.398,-1.1171875
139.408,-0.58837890625
139.418,-0.03765869140625
139.427,0.4736328125
139.437,0.90234375
139.447,1.2158203125
139.457,1.3994140625
139.467,1.455078125
139.477,1.38671875
139.487,1.193359375
139.497,0.8818359375
139.507,0.47705078125
139.517,0.0245208740234375
139.527,-0.413330078125
139.537,-0.779296875
139.547,-1.0380859375
139.557,-1.169921875
139.567,-1.16796875
139.577,-1.033203125
139.587,-0.775390625
139.597,-0.411865234375
139.607,0.0158233642578125
139.617,0.438232421875
139.621,0.343017578125
139.631,-0.05078125
139.641,-0.39306640625
139.651,-0.61767578125
139.661,-0.7060546875
139.671,-0.67822265625
139.681,-0.572265625
139.691,-0.431884765625
139.701,-0.29541015625
139.711,-0.1890869140625
139.721,-0.12841796875
139.731,-0.11993408203125
139.741,-0.1591796875
139.751,-0.23291015625
139.761,-0.321533203125
139.771,-0.40185546875
139.779,-0.45556640625
139.789,-0.4765625
139.799,-0.464599609375
139.809,-0.409423828125
139.819,-0.29736328125
139.829,-0.1376953125
139.839,0.025726318359375
139.849,0.129150390625
139.859,0.1165771484375
139.869,-0.03265380859375
139.879,-0.292236328125
139.889,-0.60205078125
139.899,-0.890625
139.909,-1.0927734375
139.919,-1.15625
139.929,-1.0625
139.939,-0.83837890625
139.949,-0.5537109375
139.959,-0.300048828125
139.969,-0.150146484375
139.978,-0.1328125
139.988,-0.22802734375
139.998,-0.379150390625
140.008,-0.51953125
140.018,-0.59228515625
140.028,-0.5576171875
140.038,-0.417236328125
140.048,-0.2257080078125
140.058,-0.0655517578125
140.068,-0.013519287109375
140.078,-0.10516357421875
140.088,-0.310791015625
140.098,-0.55322265625
140.108,-0.7451171875
140.118,-0.822265625
140.128,-0.76318359375
140.138,-0.60009765625
140.148,-0.4091796875
140.158,-0.2724609375
140.168,-0.2225341796875
140.177,-0.236572265625
140.187,-0.269287109375
140.197,-0.274658203125
140.207,-0.2261962890625
140.217,-0.1329345703125
140.227,-0.036376953125
140.237,0.0115127563476562
140.247,-0.0175018310546875
140.257,-0.11077880859375
140.267,-0.234130859375
140.277,-0.351318359375
140.287,-0.4404296875
140.297,-0.49462890625
140.307,-0.50390625
140.317,-0.457275390625
140.327,-0.3662109375
140.337,-0.26171875
140.347,-0.168701171875
140.357,-0.0841064453125
140.367,0.0121002197265625
140.371,0.11676025390625
140.381,0.06365966796875
140.391,0.0306243896484375
140.401,0.0400390625
140.411,0.094482421875
140.421,0.168212890625
140.431,0.212890625
140.441,0.1737060546875
140.451,0.0236663818359375
140.461,-0.2130126953125
140.471,-0.473876953125
140.481,-0.69287109375
140.491,-0.82861328125
140.501,-0.87744140625
140.511,-0.86279296875
140.521,-0.806640625
140.529,-0.71484375
140.539,-0.58984375
140.549,-0.450927734375
140.559,-0.335693359375
140.569,-0.27197265625
140.579,-0.25732421875
140.589,-0.27099609375
140.599,-0.289794921875
140.609,-0.293701171875
140.619,-0.27734375
140.629,-0.2666015625
140.639,-0.299072265625
140.649,-0.38134765625
140.659,-0.4736328125
140.669,-0.52734375
140.679,-0.53466796875
140.689,-0.525390625
140.699,-0.52490234375
140.709,-0.52099609375
140.719,-0.478515625
140.728,-0.383544921875
140.738,-0.27099609375
140.748,-0.1993408203125
140.758,-0.2098388671875
140.768,-0.29248046875
140.778,-0.39208984375
140.788,-0.44970703125
140.798,-0.4404296875
140.808,-0.3896484375
140.818,-0.350830078125
140.828,-0.354248046875
140.838,-0.387939453125
140.848,-0.42333984375
140.858,-0.456787109375
140.868,-0.52490234375
140.878,-0.66259765625
140.888,-0.85302734375
140.898,-1.015625
140.908,-1.0537109375
140.918,-0.92041015625
140.927,-0.6484375
140.937,-0.3232421875
140.947,-0.03631591796875
140.957,0.148681640625
140.967,0.2135009765625
140.977,0.17822265625
140.987,0.08721923828125
140.997,-0.0121536254882812
141.007,-0.08538818359375
141.017,-0.11474609375
141.027,-0.10040283203125
141.037,-0.056640625
141.047,-0.00231552124023438
141.057,0.045654296875
141.067,0.0755615234375
141.077,0.081298828125
141.087,0.06268310546875
141.097,0.0285491943359375
141.107,-0.00992584228515625
141.117,-0.045166015625
141.121,-0.2047119140625
141.131,-0.271240234375
141.141,-0.33740234375
141.151,-0.38916015625
141.161,-0.4140625
141.171,-0.40576171875
141.181,-0.37109375
141.191,-0.327880859375
141.201,-0.2978515625
141.211,-0.300048828125
141.221,-0.3505859375
141.231,-0.45751953125
141.241,-0.609375
141.251,-0.775390625
141.261,-0.916015625
141.271,-1.00390625
141.279,-1.03125
141.289,-1.0166015625
141.299,-0.99951171875
141.309,-1.0126953125
141.319,-1.0595703125
141.329,-1.1142578125
141.339,-1.1435546875
141.349,-1.12890625
141.359,-1.0830078125
141.369,-1.03515625
141.379,-1.0224609375
141.389,-1.0615234375
141.399,-1.142578125
141.409,-1.23046875
141.419,-1.28515625
141.429,-1.2724609375
141.439,-1.1806640625
141.449,-1.015625
141.459,-0.80810546875
141.469,-0.60498046875
141.478,-0.456298828125
141.488,-0.386962890625
141.498,-0.392578125
141.508,-0.44873046875
141.518,-0.5234375
141.528,-0.591796875
141.538,-0.64111328125
141.548,-0.6640625
141.558,-0.65478515625
141.568,-0.61474609375
141.578,-0.5517578125
141.588,-0.47119140625
141.598,-0.376220703125
141.608,-0.27099609375
141.618,-0.160888671875
141.628,-0.05548095703125
141.638,0.0291748046875
141.648,0.07550048828125
141.658,0.069580078125
141.668,0.0113906860351562
141.677,-0.076904296875
141.687,-0.16552734375
141.697,-0.237548828125
141.707,-0.290771484375
141.717,-0.32861328125
141.727,-0.35400390625
141.737,-0.359130859375
141.747,-0.3271484375
141.757,-0.253173828125
141.767,-0.15771484375
141.777,-0.0758056640625
141.787,-0.0423583984375
141.797,-0.0782470703125
141.807,-0.1846923828125
141.817,-0.34619140625
141.827,-0.5361328125
141.837,-0.72265625
141.847,-0.87109375
141.857,-0.95654296875
141.867,-0.96728515625
141.871,-0.73876953125
141.881,-0.80517578125
141.891,-0.91552734375
141.901,-1.041015625
141.911,-1.1328125
141.921,-1.1474609375
141.931,-1.072265625
141.941,-0.92529296875
141.951,-0.751953125
141.961,-0.607421875
141.971,-0.53125
141.981,-0.5263671875
141.991,-0.56689453125
142.001,-0.62158203125
142.011,-0.6708984375
142.021,-0.71728515625
142.029,-0.77197265625
142.039,-0.82568359375
142.049,-0.8505859375
142.059,-0.830078125
142.069,-0.7783203125
142.079,-0.72607421875
142.089,-0.701171875
142.099,-0.71337890625
142.109,-0.748046875
142.119,-0.77880859375
142.129,-0.78369140625
142.139,-0.76123046875
142.149,-0.7353515625
142.159,-0.73291015625
142.169,-0.75390625
142.179,-0.775390625
142.189,-0.78125
142.199,-0.78271484375
142.209,-0.79638671875
142.219,-0.822265625
142.228,-0.84033203125
142.238,-0.8388671875
142.248,-0.8251953125
142.258,-0.81103515625
142.268,-0.80029296875
142.278,-0.7939453125
142.288,-0.79443359375
142.298,-0.80224609375
142.308,-0.80712890625
142.318,-0.796875
142.328,-0.7705078125
142.338,-0.732421875
142.348,-0.68115234375
142.358,-0.6083984375
142.368,-0.51123046875
142.378,-0.402099609375
142.388,-0.30224609375
142.398,-0.2275390625
142.408,-0.176025390625
142.418,-0.137939453125
142.422,-0.143798828125
142.432,-0.22509765625
142.442,-0.29833984375
142.452,-0.34033203125
142.462,-0.364013671875
142.472,-0.398681640625
142.482,-0.449462890625
142.492,-0.50048828125
142.502,-0.54541015625
142.512,-0.5859375
142.522,-0.6220703125
142.532,-0.6552734375
142.542,-0.69677734375
142.552,-0.75390625
142.562,-0.8212890625
142.572,-0.88818359375
142.58,-0.94580078125
142.59,-0.9765625
142.6,-0.966796875
142.61,-0.91357421875
142.62,-0.82470703125
142.63,-0.71533203125
142.64,-0.60888671875
142.65,-0.52783203125
142.66,-0.4814453125
142.67,-0.46826171875
142.68,-0.489990234375
142.69,-0.54736328125
142.7,-0.626953125
142.71,-0.70849609375
142.72,-0.7783203125
142.73,-0.8232421875
142.74,-0.8291015625
142.75,-0.79541015625
142.76,-0.74462890625
142.77,-0.70703125
142.779,-0.6982421875
142.789,-0.7109375
142.799,-0.7275390625
142.809,-0.74462890625
142.819,-0.7587890625
142.829,-0.7607421875
142.839,-0.74267578125
142.849,-0.70458984375
142.859,-0.65087890625
142.869,-0.5908203125
142.879,-0.53955078125
142.889,-0.50537109375
142.899,-0.489501953125
142.909,-0.49609375
142.919,-0.53173828125
142.929,-0.59814453125
142.939,-0.68505859375
142.949,-0.775390625
142.959,-0.8515625
142.969,-0.8974609375
142.978,-0.9072265625
142.988,-0.884765625
142.998,-0.83837890625
143.008,-0.78125
143.018,-0.72509765625
143.028,-0.67919921875
143.038,-0.65234375
143.048,-0.65087890625
143.058,-0.677734375
143.068,-0.72705078125
143.078,-0.7802734375
143.088,-0.81982421875
143.098,-0.83447265625
143.108,-0.8203125
143.118,-0.7802734375
143.128,-0.72021484375
143.138,-0.65087890625
143.148,-0.583984375
143.158,-0.5302734375
143.168,-0.498291015625
143.172,-0.60986328125
143.182,-0.62939453125
143.192,-0.6396484375
143.202,-0.65185546875
143.212,-0.67724609375
143.222,-0.712890625
143.232,-0.74365234375
143.242,-0.75830078125
143.252,-0.755859375
143.262,-0.7470703125
143.272,-0.74609375
143.282,-0.767578125
143.292,-0.8173828125
143.302,-0.88232421875
143.312,-0.93798828125
143.322,-0.953125
143.33,-0.90576171875
143.34,-0.79541015625
143.35,-0.6435546875
143.36,-0.482666015625
143.37,-0.34814453125
143.38,-0.263671875
143.39,-0.2325439453125
143.4,-0.2509765625
143.41,-0.317626953125
143.42,-0.42041015625
143.43,-0.5322265625
143.44,-0.62255859375
143.45,-0.673828125
143.46,-0.68310546875
143.47,-0.662109375
143.48,-0.62646484375
143.49,-0.59033203125
143.5,-0.56689453125
143.51,-0.5673828125
143.52,-0.60009765625
143.529,-0.66357421875
143.539,-0.74365234375
143.549,-0.81982421875
143.559,-0.87451171875
143.569,-0.89208984375
143.579,-0.87158203125
143.589,-0.8271484375
143.599,-0.77734375
143.609,-0.73974609375
143.619,-0.7294921875
143.629,-0.75390625
143.639,-0.80615234375
143.649,-0.8779296875
143.659,-0.9609375
143.669,-1.0419921875
143.679,-1.103515625
143.689,-1.1259765625
143.699,-1.10546875
143.709,-1.044921875
143.719,-0.953125
143.728,-0.8408203125
143.738,-0.7236328125
143.748,-0.619140625
143.758,-0.54736328125
143.768,-0.52392578125
143.778,-0.552734375
143.788,-0.62158203125
143.798,-0.70751953125
143.808,-0.79541015625
143.818,-0.873046875
143.828,-0.92578125
143.838,-0.9365234375
143.848,-0.89501953125
143.858,-0.8115234375
143.868,-0.708984375
143.878,-0.6162109375
143.888,-0.55126953125
143.898,-0.5234375
143.908,-0.53515625
143.918,-0.5869140625
143.922,-0.96630859375
143.932,-0.9306640625
143.942,-0.8427734375
143.952,-0.7255859375
143.962,-0.6064453125
143.972,-0.51220703125
143.982,-0.464599609375
143.992,-0.46875
144.002,-0.51708984375
144.012,-0.5966796875
144.022,-0.68701171875
144.032,-0.7666015625
144.042,-0.818359375
144.052,-0.82568359375
144.062,-0.78515625
144.072,-0.7060546875
144.08,-0.603515625
144.09,-0.499267578125
144.1,-0.41796875
144.11,-0.373779296875
144.12,-0.373046875
144.13,-0.41552734375
144.14,-0.48828125
144.15,-0.57177734375
144.16,-0.6494140625
144.17,-0.70263671875
144.18,-0.716796875
144.19,-0.69677734375
144.2,-0.65673828125
144.21,-0.60302734375
144.22,-0.5400390625
144.23,-0.469970703125
144.24,-0.402099609375
144.25,-0.3564453125
144.26,-0.34814453125
144.27,-0.376220703125
144.279,-0.431884765625
144.289,-0.50048828125
144.299,-0.56689453125
144.309,-0.6201171875
144.319,-0.64794921875
144.329,-0.63134765625
144.339,-0.5595703125
144.349,-0.4462890625
144.359,-0.326171875
144.369,-0.237548828125
144.379,-0.193359375
144.389,-0.1802978515625
144.399,-0.184326171875
144.409,-0.20654296875
144.419,-0.248291015625
144.429,-0.300048828125
144.439,-0.349365234375
144.449,-0.383056640625
144.459,-0.38525390625
144.469,-0.349609375
144.478,-0.281494140625
144.488,-0.1910400390625
144.498,-0.0899658203125
144.508,0.00568389892578125
144.518,0.07684326171875
144.528,0.10931396484375
144.538,0.10223388671875
144.548,0.06964111328125
144.558,0.030303955078125
144.568,-0.00215721130371094
144.578,-0.02178955078125
144.588,-0.0266571044921875
144.598,-0.019287109375
144.608,-0.0107650756835938
144.618,-0.0142822265625
144.628,-0.034942626953125
144.638,-0.07086181640625
144.648,-0.11553955078125
144.658,-0.1600341796875
144.668,-0.2017822265625
144.672,-0.272216796875
144.682,-0.2398681640625
144.692,-0.2193603515625
144.702,-0.2152099609375
144.712,-0.2236328125
144.722,-0.23828125
144.732,-0.253173828125
144.742,-0.26318359375
144.752,-0.2607421875
144.762,-0.2410888671875
144.772,-0.207763671875
144.782,-0.169677734375
144.792,-0.1358642578125
144.802,-0.1142578125
144.812,-0.106689453125
144.822,-0.10748291015625
144.83,-0.112060546875
144.84,-0.12152099609375
144.85,-0.136962890625
144.86,-0.15380859375
144.87,-0.165283203125
144.88,-0.1683349609375
144.89,-0.1590576171875
144.9,-0.127197265625
144.91,-0.06939697265625
144.92,0.00278091430664062
144.93,0.0804443359375
144.94,0.15673828125
144.95,0.213134765625
144.96,0.2349853515625
144.97,0.22265625
144.98,0.177734375
144.99,0.10260009765625
145,0.0095977783203125
145.01,-0.0887451171875
145.02,-0.18310546875
145.029,-0.251953125
145.039,-0.26904296875
145.049,-0.2276611328125
145.059,-0.142578125
145.069,-0.033843994140625
145.079,0.0784912109375
145.089,0.169189453125
145.099,0.2125244140625
145.109,0.19677734375
145.119,0.127197265625
145.129,0.020782470703125
145.139,-0.09600830078125
145.149,-0.1925048828125
145.159,-0.248291015625
145.169,-0.25830078125
145.179,-0.2261962890625
145.189,-0.160400390625
145.199,-0.077392578125
145.209,0.00351715087890625
145.219,0.06988525390625
145.228,0.114990234375
145.238,0.1309814453125
145.248,0.1148681640625
145.258,0.07843017578125
145.268,0.04071044921875
145.278,0.0120468139648438
145.288,-0.00532150268554688
145.298,-0.0095977783203125
145.308,-0.00116252899169922
145.318,0.0137863159179688
145.328,0.02642822265625
145.338,0.03131103515625
145.348,0.0262908935546875
145.358,0.0084686279296875
145.368,-0.0223388671875
145.378,-0.058502197265625
145.388,-0.0894775390625
145.398,-0.109375
145.408,-0.1160888671875
145.418,-0.1070556640625
145.422,0.04571533203125
145.432,0.060211181640625
145.442,0.068115234375
145.452,0.07513427734375
145.462,0.08953857421875
145.472,0.11456298828125
145.482,0.1453857421875
145.492,0.1749267578125
145.502,0.1964111328125
145.512,0.200927734375
145.522,0.1815185546875
145.532,0.1414794921875
145.542,0.0909423828125
145.552,0.037445068359375
145.562,-0.015655517578125
145.572,-0.06658935546875
145.58,-0.111572265625
145.59,-0.141845703125
145.6,-0.1490478515625
145.61,-0.1318359375
145.62,-0.0977783203125
145.63,-0.059478759765625
145.64,-0.023895263671875
145.65,0.00654220581054688
145.66,0.0278472900390625
145.67,0.034515380859375
145.68,0.0257415771484375
145.69,0.01129150390625
145.7,0.00232124328613281
145.71,0.000257015228271484
145.72,0.00156021118164062
145.73,0.00259590148925781
145.74,0.000504970550537109
145.75,-0.00545883178710938
145.76,-0.0138473510742188
145.77,-0.019744873046875
145.779,-0.01953125
145.789,-0.0154953002929688
145.799,-0.00861358642578125
145.809,0.00403213500976562
145.819,0.0228118896484375
145.829,0.044097900390625
145.839,0.060089111328125
145.849,0.05950927734375
145.859,0.03497314453125
145.869,-0.0125274658203125
145.879,-0.07305908203125
145.889,-0.1297607421875
145.899,-0.1690673828125
145.909,-0.186767578125
145.919,-0.182861328125
145.929,-0.1600341796875
145.939,-0.1300048828125
145.949,-0.10589599609375
145.959,-0.09320068359375
145.969,-0.09185791015625
145.978,-0.0965576171875
145.988,-0.09747314453125
145.998,-0.0916748046875
146.008,-0.08404541015625
146.018,-0.07513427734375
146.028,-0.06292724609375
146.038,-0.053680419921875
146.048,-0.057586669921875
146.058,-0.07794189453125
146.068,-0.11224365234375
146.078,-0.15478515625
146.088,-0.1922607421875
146.098,-0.21240234375
146.108,-0.2127685546875
146.118,-0.1925048828125
146.128,-0.151611328125
146.138,-0.0966796875
146.148,-0.03448486328125
146.158,0.0298919677734375
146.168,0.08526611328125
146.172,-0.06109619140625
146.182,-0.1417236328125
146.192,-0.196533203125
146.202,-0.21630859375
146.212,-0.1973876953125
146.222,-0.146728515625
146.232,-0.08087158203125
146.242,-0.01666259765625
146.252,0.032073974609375
146.262,0.05133056640625
146.272,0.03509521484375
146.282,-0.00574493408203125
146.292,-0.05181884765625
146.302,-0.08294677734375
146.312,-0.0753173828125
146.322,-0.0133285522460938
146.33,0.08795166015625
146.34,0.189697265625
146.35,0.259521484375
146.36,0.28369140625
146.37,0.255126953125
146.38,0.177490234375
146.39,0.071533203125
146.4,-0.046234130859375
146.41,-0.1741943359375
146.42,-0.30322265625
146.43,-0.40234375
146.44,-0.439697265625
146.45,-0.404541015625
146.46,-0.3076171875
146.47,-0.1673583984375
146.48,-0.0091705322265625
146.49,0.13525390625
146.5,0.2344970703125
146.51,0.266845703125
146.52,0.22802734375
146.529,0.127197265625
146.539,-0.010406494140625
146.549,-0.147216796875
146.559,-0.25439453125
146.569,-0.324951171875
146.579,-0.36328125
146.589,-0.365478515625
146.599,-0.326171875
146.609,-0.258544921875
146.619,-0.1846923828125
146.629,-0.11151123046875
146.639,-0.035247802734375
146.649,0.036529541015625
146.659,0.08734130859375
146.669,0.1126708984375
146.679,0.126220703125
146.689,0.144287109375
146.699,0.163330078125
146.709,0.16015625
146.719,0.11968994140625
146.727,0.048980712890625
146.737,-0.0421142578125
146.747,-0.15771484375
146.757,-0.298095703125
146.767,-0.4375
146.777,-0.53173828125
146.787,-0.54296875
146.797,-0.46435546875
146.807,-0.334716796875
146.817,-0.21142578125
146.827,-0.1209716796875
146.837,-0.060821533203125
146.847,-0.030242919921875
146.857,-0.035125732421875
146.867,-0.072021484375
146.877,-0.12103271484375
146.887,-0.1513671875
146.897,-0.1458740234375
146.907,-0.12225341796875
146.917,-0.11236572265625
146.921,-0.2412109375
146.931,-0.280517578125
146.941,-0.314453125
146.951,-0.322021484375
146.961,-0.30078125
146.971,-0.27099609375
146.981,-0.2529296875
146.991,-0.24755859375
147.001,-0.23974609375
147.011,-0.2117919921875
147.021,-0.168701171875
147.031,-0.136474609375
147.041,-0.13232421875
147.051,-0.152099609375
147.061,-0.186279296875
147.071,-0.227294921875
147.08,-0.2666015625
147.09,-0.299072265625
147.1,-0.318603515625
147.11,-0.319580078125
147.12,-0.301025390625
147.13,-0.261962890625
147.14,-0.2073974609375
147.15,-0.154052734375
147.16,-0.119140625
147.17,-0.10662841796875
147.18,-0.11279296875
147.19,-0.1331787109375
147.2,-0.1617431640625
147.21,-0.1885986328125
147.22,-0.1993408203125
147.23,-0.1805419921875
147.24,-0.134033203125
147.25,-0.08245849609375
147.26,-0.058746337890625
147.27,-0.09039306640625
147.279,-0.18115234375
147.289,-0.308349609375
147.299,-0.433349609375
147.309,-0.5126953125
147.319,-0.52197265625
147.329,-0.46240234375
147.339,-0.34814453125
147.349,-0.2083740234375
147.359,-0.08563232421875
147.369,-0.0166778564453125
147.379,-0.0202178955078125
147.389,-0.0977783203125
147.399,-0.2275390625
147.409,-0.37060546875
147.419,-0.489990234375
147.429,-0.55712890625
147.439,-0.556640625
147.449,-0.49267578125
147.459,-0.38623046875
147.469,-0.263916015625
147.477,-0.152099609375
147.487,-0.07220458984375
147.497,-0.036834716796875
147.507,-0.0506591796875
147.517,-0.10540771484375
147.527,-0.177001953125
147.537,-0.2347412109375
147.547,-0.2548828125
147.557,-0.23193359375
147.567,-0.1846923828125
147.577,-0.1483154296875
147.587,-0.14794921875
147.597,-0.1865234375
147.607,-0.247314453125
147.617,-0.302490234375
147.627,-0.33154296875
147.637,-0.326904296875
147.647,-0.2890625
147.657,-0.228759765625
147.667,-0.166748046875
147.671,-0.33203125
147.681,-0.46728515625
147.691,-0.5908203125
147.701,-0.67529296875
147.711,-0.71484375
147.721,-0.72998046875
147.731,-0.75
147.741,-0.7958984375
147.751,-0.86376953125
147.761,-0.93701171875
147.771,-1.0078125
147.781,-1.07421875
147.791,-1.1201171875
147.801,-1.12890625
147.811,-1.091796875
147.821,-1.005859375
147.83,-0.8828125
147.84,-0.7529296875
147.85,-0.65185546875
147.86,-0.60400390625
147.87,-0.625
147.88,-0.7197265625
147.89,-0.87255859375
147.9,-1.0458984375
147.91,-1.1982421875
147.92,-1.2900390625
147.93,-1.30078125
147.94,-1.234375
147.95,-1.1103515625
147.96,-0.951171875
147.97,-0.78759765625
147.98,-0.66552734375
147.99,-0.619140625
148,-0.64794921875
148.01,-0.7314453125
148.02,-0.83935546875
148.029,-0.93505859375
148.039,-0.98974609375
148.049,-0.99560546875
148.059,-0.9677734375
148.069,-0.93212890625
148.079,-0.9150390625
148.089,-0.9296875
148.099,-0.9755859375
148.109,-1.0439453125
148.119,-1.1220703125
148.129,-1.1962890625
148.139,-1.25390625
148.149,-1.2861328125
148.159,-1.2890625
148.169,-1.2587890625
148.179,-1.1982421875
148.189,-1.1181640625
148.199,-1.03515625
148.209,-0.96337890625
148.219,-0.9111328125
148.227,-0.8828125
148.237,-0.8798828125
148.247,-0.896484375
148.257,-0.91845703125
148.267,-0.9326171875
148.277,-0.9326171875
148.287,-0.9189453125
148.297,-0.89453125
148.307,-0.87060546875
148.317,-0.8623046875
148.327,-0.88330078125
148.337,-0.9296875
148.347,-0.98974609375
148.357,-1.0478515625
148.367,-1.0888671875
148.377,-1.09765625
148.387,-1.0751953125
148.397,-1.029296875
148.407,-0.974609375
148.417,-0.9287109375
148.421,-0.95166015625
148.431,-0.955078125
148.441,-0.94091796875
148.451,-0.9140625
148.461,-0.8837890625
148.471,-0.8642578125
148.481,-0.8671875
148.491,-0.900390625
148.501,-0.95654296875
148.511,-1.0185546875
148.521,-1.0712890625
148.531,-1.111328125
148.541,-1.140625
148.551,-1.158203125
148.561,-1.1640625
148.571,-1.1552734375
148.58,-1.1357421875
148.59,-1.10546875
148.6,-1.0654296875
148.61,-1.021484375
148.62,-0.98974609375
148.63,-0.982421875
148.64,-1
148.65,-1.0263671875
148.66,-1.0400390625
148.67,-1.037109375
148.68,-1.0185546875
148.69,-0.9892578125
148.7,-0.95751953125
148.71,-0.93310546875
148.72,-0.921875
148.73,-0.92138671875
148.74,-0.93408203125
148.75,-0.9560546875
148.76,-0.97900390625
148.77,-0.99462890625
148.779,-0.99072265625
148.789,-0.96435546875
148.799,-0.92529296875
148.809,-0.87890625
148.819,-0.833984375
148.829,-0.80517578125
148.839,-0.7939453125
148.849,-0.7998046875
148.859,-0.83349609375
148.869,-0.89013671875
148.879,-0.951171875
148.889,-1.0078125
148.899,-1.0458984375
148.909,-1.0478515625
148.919,-1.0224609375
148.929,-0.98583984375
148.939,-0.9345703125
148.949,-0.8681640625
148.959,-0.80517578125
148.969,-0.7548828125
148.977,-0.7158203125
148.987,-0.70361328125
148.997,-0.73681640625
149.007,-0.7958984375
149.017,-0.84375
149.027,-0.875
149.037,-0.900390625
149.047,-0.9091796875
149.057,-0.8818359375
149.067,-0.8388671875
149.077,-0.82763671875
149.087,-0.86572265625
149.097,-0.91552734375
149.107,-0.9326171875
149.117,-0.92333984375
149.127,-0.93505859375
149.137,-0.986328125
149.147,-1.0361328125
149.157,-1.029296875
149.167,-0.95947265625
149.171,-0.98876953125
149.181,-0.91552734375
149.191,-0.86474609375
149.201,-0.90087890625
149.211,-1.0029296875
149.221,-1.0771484375
149.231,-1.0517578125
149.241,-0.94921875
149.251,-0.8505859375
149.261,-0.80810546875
149.271,-0.79736328125
149.281,-0.75927734375
149.291,-0.6767578125
149.301,-0.59326171875
149.311,-0.55712890625
149.321,-0.56005859375
149.33,-0.546875
149.34,-0.479248046875
149.35,-0.379150390625
149.36,-0.30078125
149.37,-0.265380859375
149.38,-0.2459716796875
149.39,-0.2137451171875
149.4,-0.18310546875
149.41,-0.199951171875
149.42,-0.287109375
149.43,-0.408935546875
149.44,-0.4990234375
149.45,-0.53173828125
149.46,-0.54931640625
149.47,-0.6220703125
149.48,-0.78466796875
149.49,-0.9892578125
149.5,-1.138671875
149.51,-1.16796875
149.52,-1.103515625
149.529,-1.0224609375
149.539,-0.98291015625
149.549,-0.982421875
149.559,-0.96435546875
149.569,-0.8662109375
149.579,-0.6748046875
149.589,-0.43896484375
149.599,-0.23779296875
149.609,-0.14111328125
149.619,-0.1688232421875
149.629,-0.276123046875
149.639,-0.376708984375
149.649,-0.39013671875
149.659,-0.285400390625
149.669,-0.09490966796875
149.679,0.10589599609375
149.689,0.22900390625
149.699,0.216552734375
149.709,0.0865478515625
149.719,-0.07696533203125
149.727,-0.19775390625
149.737,-0.260498046875
149.747,-0.29052734375
149.757,-0.301513671875
149.767,-0.28515625
149.777,-0.237060546875
149.787,-0.177001953125
149.797,-0.12646484375
149.807,-0.08270263671875
149.817,-0.0341796875
149.827,0.014251708984375
149.837,0.04229736328125
149.847,0.030670166015625
149.857,-0.021759033203125
149.867,-0.0994873046875
149.877,-0.1878662109375
149.887,-0.276123046875
149.897,-0.347412109375
149.907,-0.37744140625
149.917,-0.348876953125
149.921,0.01531982421875
149.931,0.0092620849609375
149.941,-0.0465087890625
149.951,-0.1497802734375
149.961,-0.269287109375
149.971,-0.3623046875
149.981,-0.404052734375
149.991,-0.389404296875
150.001,-0.317138671875
150.011,-0.1951904296875
150.021,-0.05120849609375
150.031,0.079833984375
150.041,0.17724609375
150.051,0.23046875
150.061,0.2298583984375
150.071,0.175537109375
150.08,0.08209228515625
150.09,-0.028472900390625
150.1,-0.125
150.11,-0.170166015625
150.12,-0.1412353515625
150.13,-0.04571533203125
150.14,0.0863037109375
150.15,0.2176513671875
150.16,0.312255859375
150.17,0.3427734375
150.18,0.297607421875
150.19,0.1854248046875
150.2,0.03448486328125
150.21,-0.1148681640625
150.22,-0.2296142578125
150.23,-0.292724609375
150.24,-0.294677734375
150.25,-0.2344970703125
150.26,-0.1317138671875
150.27,-0.024810791015625
150.279,0.04888916015625
150.289,0.06439208984375
150.299,0.0174560546875
150.309,-0.07049560546875
150.319,-0.1639404296875
150.329,-0.225830078125
150.339,-0.225341796875
150.349,-0.1578369140625
150.359,-0.049652099609375
150.369,0.0645751953125
150.379,0.157470703125
150.389,0.2103271484375
150.399,0.2137451171875
150.409,0.1663818359375
150.419,0.07989501953125
150.429,-0.0185546875
150.439,-0.1007080078125
150.449,-0.152099609375
150.459,-0.173828125
150.469,-0.1768798828125
150.477,-0.170654296875
150.487,-0.1585693359375
150.497,-0.144287109375
150.507,-0.12744140625
150.517,-0.10235595703125
150.527,-0.069091796875
150.537,-0.036163330078125
150.547,-0.0112228393554688
150.557,0.00532913208007812
150.567,0.018463134765625
150.577,0.031707763671875
150.587,0.038726806640625
150.597,0.0258026123046875
150.607,-0.0157318115234375
150.617,-0.08544921875
150.627,-0.1729736328125
150.637,-0.26318359375
150.647,-0.353759765625
150.657,-0.45361328125
150.667,-0.56689453125
150.671,-0.79248046875
150.681,-0.6962890625
150.691,-0.57421875
150.701,-0.44677734375
150.711,-0.333984375
150.721,-0.2548828125
150.731,-0.228759765625
150.741,-0.26953125
150.751,-0.370849609375
150.761,-0.51025390625
150.771,-0.6591796875
150.781,-0.78662109375
150.791,-0.8701171875
150.801,-0.90380859375
150.811,-0.89111328125
150.821,-0.83935546875
150.83,-0.75830078125
150.84,-0.65673828125
150.85,-0.5341796875
150.86,-0.390380859375
150.87,-0.249267578125
150.88,-0.1474609375
150.89,-0.0947265625
150.9,-0.08074951171875
150.91,-0.1068115234375
150.92,-0.1920166015625
150.93,-0.361083984375
150.94,-0.6181640625
150.95,-0.9208984375
150.96,-1.189453125
150.97,-1.345703125
150.98,-1.3427734375
150.99,-1.1787109375
151,-0.8974609375
151.01,-0.5634765625
151.02,-0.2310791015625
151.029,0.054229736328125
151.039,0.240966796875
151.049,0.291748046875
151.059,0.2138671875
151.069,0.03759765625
151.079,-0.197021484375
151.089,-0.419189453125
151.099,-0.55078125
151.109,-0.55908203125
151.119,-0.4521484375
151.129,-0.25830078125
151.139,-0.02874755859375
151.149,0.1751708984375
151.159,0.30419921875
151.169,0.323974609375
151.179,0.2197265625
151.189,0.00184822082519531
151.199,-0.3056640625
151.209,-0.6630859375
151.219,-0.98828125
151.227,-1.1748046875
151.237,-1.15234375
151.247,-0.921875
151.257,-0.5517578125
151.267,-0.1551513671875
151.277,0.1627197265625
151.287,0.328857421875
151.297,0.3173828125
151.307,0.155517578125
151.317,-0.090576171875
151.327,-0.33642578125
151.337,-0.51220703125
151.347,-0.578125
151.357,-0.51904296875
151.367,-0.358642578125
151.377,-0.14501953125
151.387,0.08868408203125
151.397,0.302978515625
151.407,0.427734375
151.417,0.39599609375
151.421,-1.0810546875
151.431,-1.2275390625
151.441,-1.2158203125
151.451,-1.0595703125
151.461,-0.79345703125
151.471,-0.465576171875
151.481,-0.1390380859375
151.491,0.130859375
151.501,0.2958984375
151.511,0.324462890625
151.521,0.2222900390625
151.531,0.0267181396484375
151.541,-0.20947265625
151.551,-0.4296875
151.561,-0.5869140625
151.571,-0.65576171875
151.58,-0.63232421875
151.59,-0.5341796875
151.6,-0.40478515625
151.61,-0.3095703125
151.62,-0.30517578125
151.63,-0.392578125
151.64,-0.51611328125
151.65,-0.6083984375
151.66,-0.619140625
151.67,-0.52880859375
151.68,-0.351806640625
151.69,-0.1158447265625
151.7,0.16015625
151.71,0.441650390625
151.72,0.65087890625
151.73,0.7041015625
151.74,0.57861328125
151.75,0.3193359375
151.76,0.008575439453125
151.77,-0.256103515625
151.778,-0.390869140625
151.788,-0.375
151.798,-0.2587890625
151.808,-0.115966796875
151.818,-0.00251960754394531
151.828,0.059661865234375
151.838,0.0704345703125
151.848,0.0295562744140625
151.858,-0.056610107421875
151.868,-0.1595458984375
151.878,-0.2413330078125
151.888,-0.2734375
151.898,-0.2449951171875
151.908,-0.165771484375
151.918,-0.06829833984375
151.928,0.017822265625
151.938,0.0938720703125
151.948,0.1805419921875
151.958,0.27685546875
151.968,0.345703125
151.977,0.3486328125
151.987,0.27978515625
151.997,0.153076171875
152.007,-0.021820068359375
152.017,-0.2381591796875
152.027,-0.469970703125
152.037,-0.6591796875
152.047,-0.7451171875
152.057,-0.69970703125
152.067,-0.51416015625
152.077,-0.2139892578125
152.087,0.1278076171875
152.097,0.42626953125
152.107,0.62744140625
152.117,0.70556640625
152.127,0.65185546875
152.137,0.4794921875
152.147,0.23583984375
152.157,-0.01654052734375
152.167,-0.2220458984375
152.172,-0.1419677734375
152.182,-0.042266845703125
152.192,0.030487060546875
152.202,0.08306884765625
152.212,0.12030029296875
152.222,0.13623046875
152.232,0.12890625
152.242,0.100341796875
152.252,0.04180908203125
152.262,-0.051971435546875
152.272,-0.157470703125
152.282,-0.2349853515625
152.292,-0.26806640625
152.302,-0.275390625
152.312,-0.280517578125
152.322,-0.299560546875
152.33,-0.340576171875
152.34,-0.39013671875
152.35,-0.416748046875
152.36,-0.400390625
152.37,-0.334228515625
152.38,-0.222412109375
152.39,-0.08428955078125
152.4,0.049468994140625
152.41,0.1368408203125
152.42,0.137939453125
152.43,0.0367431640625
152.44,-0.161376953125
152.45,-0.4150390625
152.46,-0.63720703125
152.47,-0.74560546875
152.48,-0.70263671875
152.49,-0.50830078125
152.5,-0.1943359375
152.51,0.1673583984375
152.52,0.474365234375
152.528,0.6396484375
152.538,0.634765625
152.548,0.4990234375
152.558,0.30029296875
152.568,0.0963134765625
152.578,-0.0914306640625
152.588,-0.27294921875
152.598,-0.435791015625
152.608,-0.537109375
152.618,-0.5576171875
152.628,-0.5009765625
152.638,-0.384521484375
152.648,-0.2412109375
152.658,-0.10955810546875
152.668,-0.0145950317382812
152.678,0.028167724609375
152.688,0.004669189453125
152.698,-0.07318115234375
152.708,-0.1641845703125
152.718,-0.2322998046875
152.727,-0.25927734375
152.737,-0.2491455078125
152.747,-0.222900390625
152.757,-0.2091064453125
152.767,-0.236328125
152.777,-0.298583984375
152.787,-0.3544921875
152.797,-0.37890625
152.807,-0.382568359375
152.817,-0.3798828125
152.827,-0.349609375
152.837,-0.26025390625
152.847,-0.11688232421875
152.857,0.042755126953125
152.867,0.16650390625
152.877,0.211181640625
152.887,0.1739501953125
152.897,0.09393310546875
152.907,0.0164031982421875
152.917,-0.040557861328125
152.921,-0.215576171875
152.931,-0.251220703125
152.941,-0.27392578125
152.951,-0.277099609375
152.961,-0.2568359375
152.971,-0.209228515625
152.981,-0.1431884765625
152.991,-0.08941650390625
153.001,-0.07891845703125
153.011,-0.1116943359375
153.021,-0.155517578125
153.031,-0.180419921875
153.041,-0.1837158203125
153.051,-0.1785888671875
153.061,-0.16845703125
153.071,-0.1444091796875
153.08,-0.10675048828125
153.09,-0.07061767578125
153.1,-0.04498291015625
153.11,-0.0235137939453125
153.12,-0.00256538391113281
153.13,-0.000704765319824219
153.14,-0.04925537109375
153.15,-0.155517578125
153.16,-0.284912109375
153.17,-0.38916015625
153.18,-0.4453125
153.19,-0.4619140625
153.2,-0.452880859375
153.21,-0.40966796875
153.22,-0.312744140625
153.23,-0.1710205078125
153.24,-0.032928466796875
153.25,0.046051025390625
153.26,0.042877197265625
153.27,-0.0189666748046875
153.278,-0.09393310546875
153.288,-0.15380859375
153.298,-0.1993408203125
153.308,-0.2332763671875
153.318,-0.239990234375
153.328,-0.199951171875
153.338,-0.11895751953125
153.348,-0.036468505859375
153.358,-0.0033111572265625
153.368,-0.044219970703125
153.378,-0.1375732421875
153.388,-0.2335205078125
153.398,-0.291748046875
153.408,-0.3056640625
153.418,-0.297607421875
153.428,-0.29345703125
153.438,-0.2919921875
153.448,-0.265380859375
153.458,-0.1895751953125
153.468,-0.0721435546875
153.477,0.04547119140625
153.487,0.10736083984375
153.497,0.0792236328125
153.507,-0.02764892578125
153.517,-0.168701171875
153.527,-0.28955078125
153.537,-0.3505859375
153.547,-0.347412109375
153.557,-0.30859375
153.567,-0.266845703125
153.577,-0.2410888671875
153.587,-0.2337646484375
153.597,-0.2354736328125
153.607,-0.2381591796875
153.617,-0.244873046875
153.627,-0.263916015625
153.637,-0.309814453125
153.647,-0.39697265625
153.657,-0.52001953125
153.667,-0.654296875
153.672,-1.1640625
153.682,-1.220703125
153.692,-1.2587890625
153.702,-1.275390625
153.712,-1.263671875
153.722,-1.2197265625
153.732,-1.15234375
153.742,-1.076171875
153.752,-1.005859375
153.762,-0.95166015625
153.772,-0.9189453125
153.782,-0.91064453125
153.792,-0.92578125
153.802,-0.94921875
153.812,-0.9609375
153.822,-0.9580078125
153.83,-0.9521484375
153.84,-0.94921875
153.85,-0.95947265625
153.86,-0.9873046875
153.87,-1.021484375
153.88,-1.05859375
153.89,-1.1142578125
153.9,-1.1943359375
153.91,-1.265625
153.92,-1.2783203125
153.93,-1.2109375
153.94,-1.1025390625
153.95,-1.03125
153.96,-1.064453125
153.97,-1.1845703125
153.98,-1.306640625
153.99,-1.359375
154,-1.353515625
154.01,-1.3583984375
154.02,-1.412109375
154.028,-1.48046875
154.038,-1.498046875
154.048,-1.45703125
154.058,-1.4150390625
154.068,-1.4248046875
154.078,-1.470703125
154.088,-1.49609375
154.098,-1.4599609375
154.108,-1.369140625
154.118,-1.2666015625
154.128,-1.197265625
154.138,-1.1796875
154.148,-1.208984375
154.158,-1.2744140625
154.168,-1.3505859375
154.178,-1.400390625
154.188,-1.3798828125
154.198,-1.265625
154.208,-1.0703125
154.218,-0.8310546875
154.227,-0.58642578125
154.237,-0.372802734375
154.247,-0.2138671875
154.257,-0.1256103515625
154.267,-0.11700439453125
154.277,-0.18017578125
154.287,-0.2900390625
154.297,-0.4208984375
154.307,-0.5498046875
154.317,-0.654296875
154.327,-0.72705078125
154.337,-0.783203125
154.347,-0.8388671875
154.357,-0.9013671875
154.367,-0.97119140625
154.377,-1.0439453125
154.387,-1.109375
154.397,-1.1474609375
154.407,-1.158203125
154.417,-1.171875
154.421,-1.748046875
154.431,-1.6787109375
154.441,-1.48828125
154.451,-1.216796875
154.461,-0.91357421875
154.471,-0.61181640625
154.481,-0.327392578125
154.491,-0.05877685546875
154.501,0.19482421875
154.511,0.420654296875
154.521,0.59423828125
154.531,0.68603515625
154.541,0.65966796875
154.551,0.47265625
154.561,0.0921630859375
154.571,-0.47607421875
154.58,-1.1630859375
154.59,-1.845703125
154.6,-2.3828125
154.61,-2.662109375
154.62,-2.6328125
154.63,-2.333984375
154.64,-1.884765625
154.65,-1.4404296875
154.66,-1.1416015625
154.67,-1.0341796875
154.68,-1.0556640625
154.69,-1.1015625
154.7,-1.1162109375
154.71,-1.111328125
154.72,-1.1201171875
154.73,-1.142578125
154.74,-1.1435546875
154.75,-1.1025390625
154.76,-1.0263671875
154.77,-0.9404296875
154.778,-0.8740234375
154.788,-0.85009765625
154.798,-0.880859375
154.808,-0.9619140625
154.818,-1.0693359375
154.828,-1.16796875
154.838,-1.24609375
154.848,-1.310546875
154.858,-1.34375
154.868,-1.3203125
154.878,-1.2392578125
154.888,-1.1181640625
154.898,-0.9853515625
154.908,-0.8720703125
154.918,-0.78955078125
154.928,-0.724609375
154.938,-0.67724609375
154.948,-0.671875
154.958,-0.724609375
154.968,-0.818359375
154.977,-0.9169921875
154.987,-1.0029296875
154.997,-1.0888671875
155.007,-1.1884765625
155.017,-1.28125
155.027,-1.322265625
155.037,-1.2900390625
155.047,-1.2158203125
155.057,-1.1494140625
155.067,-1.107421875
155.077,-1.06640625
155.087,-1.001953125
155.097,-0.93212890625
155.107,-0.90380859375
155.117,-0.93896484375
155.127,-1.0126953125
155.137,-1.0712890625
155.147,-1.0849609375
155.157,-1.068359375
155.167,-1.0615234375
155.172,-0.8798828125
155.182,-0.91162109375
155.192,-1.015625
155.202,-1.125
155.212,-1.1650390625
155.222,-1.107421875
155.232,-0.98876953125
155.242,-0.88720703125
155.252,-0.8779296875
155.262,-0.99365234375
155.272,-1.2021484375
155.282,-1.421875
155.292,-1.5615234375
155.302,-1.5634765625
155.312,-1.421875
155.322,-1.173828125
155.329,-0.89453125
155.339,-0.671875
155.349,-0.57763671875
155.359,-0.64013671875
155.369,-0.83154296875
155.379,-1.076171875
155.389,-1.279296875
155.399,-1.3623046875
155.409,-1.298828125
155.419,-1.109375
155.429,-0.8515625
155.439,-0.58349609375
155.449,-0.3564453125
155.459,-0.201171875
155.469,-0.132080078125
155.479,-0.1558837890625
155.489,-0.27783203125
155.499,-0.499267578125
155.509,-0.8076171875
155.519,-1.17578125
155.528,-1.5712890625
155.538,-1.9619140625
155.548,-2.318359375
155.558,-2.626953125
155.568,-2.873046875
155.578,-3.056640625
155.588,-3.185546875
155.598,-3.267578125
155.608,-3.30859375
155.618,-3.310546875
155.628,-3.26953125
155.638,-3.185546875
155.648,-3.048828125
155.658,-2.853515625
155.668,-2.59765625
155.678,-2.27734375
155.688,-1.8974609375
155.698,-1.4609375
155.708,-0.98388671875
155.718,-0.50439453125
155.727,-0.07904052734375
155.737,0.23046875
155.747,0.369384765625
155.757,0.3046875
155.767,0.043182373046875
155.777,-0.3671875
155.787,-0.85107421875
155.797,-1.3232421875
155.807,-1.7001953125
155.817,-1.9130859375
155.827,-1.91015625
155.837,-1.6689453125
155.847,-1.201171875
155.857,-0.55712890625
155.867,0.1719970703125
155.877,0.876953125
155.887,1.44921875
155.897,1.80078125
155.907,1.8740234375
155.917,1.65625
155.921,-1.3896484375
155.931,-1.716796875
155.941,-1.8173828125
155.951,-1.6865234375
155.961,-1.34375
155.971,-0.8466796875
155.981,-0.302001953125
155.991,0.1363525390625
156.001,0.349853515625
156.011,0.310791015625
156.021,0.0703125
156.031,-0.283203125
156.041,-0.6640625
156.051,-1.0068359375
156.061,-1.2666015625
156.071,-1.4189453125
156.079,-1.458984375
156.089,-1.3974609375
156.099,-1.25390625
156.109,-1.0576171875
156.119,-0.845703125
156.129,-0.6474609375
156.139,-0.482666015625
156.149,-0.359375
156.159,-0.275390625
156.169,-0.212890625
156.179,-0.143798828125
156.189,-0.0413818359375
156.199,0.10418701171875
156.209,0.275390625
156.219,0.437744140625
156.229,0.5625
156.239,0.640625
156.249,0.681640625
156.259,0.70849609375
156.269,0.74462890625
156.278,0.80126953125
156.288,0.873046875
156.298,0.9541015625
156.308,1.041015625
156.318,1.130859375
156.328,1.2138671875
156.338,1.2744140625
156.348,1.298828125
156.358,1.283203125
156.368,1.2333984375
156.378,1.1513671875
156.388,1.037109375
156.398,0.8955078125
156.408,0.736328125
156.418,0.576171875
156.428,0.4326171875
156.438,0.316650390625
156.448,0.2320556640625
156.458,0.1761474609375
156.468,0.1407470703125
156.477,0.11529541015625
156.487,0.0904541015625
156.497,0.05950927734375
156.507,0.0156021118164062
156.517,-0.05352783203125
156.527,-0.16259765625
156.537,-0.31787109375
156.547,-0.5107421875
156.557,-0.72216796875
156.567,-0.92724609375
156.577,-1.1015625
156.587,-1.2333984375
156.597,-1.3251953125
156.607,-1.3798828125
156.617,-1.3984375
156.627,-1.37890625
156.637,-1.3271484375
156.647,-1.2548828125
156.657,-1.185546875
156.667,-1.1494140625
156.672,-1.3701171875
156.682,-1.3642578125
156.692,-1.333984375
156.702,-1.2900390625
156.712,-1.2353515625
156.722,-1.16796875
156.732,-1.087890625
156.742,-1.0068359375
156.752,-0.94287109375
156.762,-0.90576171875
156.772,-0.89453125
156.782,-0.89599609375
156.792,-0.8955078125
156.802,-0.89501953125
156.812,-0.90966796875
156.822,-0.95849609375
156.829,-1.0517578125
156.839,-1.19140625
156.849,-1.3603515625
156.859,-1.5322265625
156.869,-1.6806640625
156.879,-1.7802734375
156.889,-1.818359375
156.899,-1.7890625
156.909,-1.6943359375
156.919,-1.548828125
156.929,-1.369140625
156.939,-1.1748046875
156.949,-0.97314453125
156.959,-0.75732421875
156.969,-0.51123046875
156.979,-0.2235107421875
156.989,0.1070556640625
156.999,0.46923828125
157.009,0.84326171875
157.019,1.197265625
157.028,1.490234375
157.038,1.673828125
157.048,1.7099609375
157.058,1.5771484375
157.068,1.26953125
157.078,0.80419921875
157.088,0.22412109375
157.098,-0.400390625
157.108,-0.982421875
157.118,-1.427734375
157.128,-1.6552734375
157.138,-1.6220703125
157.148,-1.333984375
157.158,-0.8505859375
157.168,-0.270263671875
157.178,0.284912109375
157.188,0.70166015625
157.198,0.8984375
157.208,0.8408203125
157.218,0.54443359375
157.227,0.0736083984375
157.237,-0.468994140625
157.247,-0.9609375
157.257,-1.2822265625
157.267,-1.34765625
157.277,-1.13671875
157.287,-0.72021484375
157.297,-0.2330322265625
157.307,0.1708984375
157.317,0.36572265625
157.327,0.288818359375
157.337,-0.03070068359375
157.347,-0.472412109375
157.357,-0.8681640625
157.367,-1.0693359375
157.377,-1.01171875
157.387,-0.7392578125
157.397,-0.37939453125
157.407,-0.07568359375
157.417,0.07623291015625
157.421,-0.279541015625
157.431,-0.267333984375
157.441,-0.2369384765625
157.451,-0.188720703125
157.461,-0.1160888671875
157.471,-0.01800537109375
157.481,0.0888671875
157.491,0.1683349609375
157.501,0.1849365234375
157.511,0.1309814453125
157.521,0.0325927734375
157.531,-0.0726318359375
157.541,-0.1580810546875
157.551,-0.211181640625
157.561,-0.2247314453125
157.571,-0.1942138671875
157.579,-0.126708984375
157.589,-0.04583740234375
157.599,0.01971435546875
157.609,0.057769775390625
157.619,0.07550048828125
157.629,0.07806396484375
157.639,0.054779052734375
157.649,-0.0055694580078125
157.659,-0.0916748046875
157.669,-0.1700439453125
157.679,-0.208251953125
157.689,-0.197021484375
157.699,-0.1473388671875
157.709,-0.07196044921875
157.719,0.0180511474609375
157.729,0.10302734375
157.739,0.15673828125
157.749,0.161865234375
157.759,0.11773681640625
157.769,0.03619384765625
157.778,-0.061126708984375
157.788,-0.1473388671875
157.798,-0.2001953125
157.808,-0.209228515625
157.818,-0.1773681640625
157.828,-0.11444091796875
157.838,-0.02947998046875
157.848,0.06591796875
157.858,0.151611328125
157.868,0.2081298828125
157.878,0.228759765625
157.888,0.2186279296875
157.898,0.186767578125
157.908,0.1397705078125
157.918,0.07977294921875
157.928,0.0129013061523438
157.938,-0.043609619140625
157.948,-0.075927734375
157.958,-0.0855712890625
157.968,-0.07891845703125
157.977,-0.060821533203125
157.987,-0.042236328125
157.997,-0.0338134765625
158.007,-0.034759521484375
158.017,-0.03973388671875
158.027,-0.0438232421875
158.037,-0.03778076171875
158.047,-0.0155715942382812
158.057,0.0185089111328125
158.067,0.057830810546875
158.077,0.09716796875
158.087,0.12646484375
158.097,0.1339111328125
158.107,0.1181640625
158.117,0.086181640625
158.127,0.04034423828125
158.137,-0.0164794921875
158.147,-0.06927490234375
158.157,-0.10565185546875
158.167,-0.12396240234375
158.172,0.075439453125
158.182,0.11492919921875
158.192,0.1302490234375
158.202,0.114501953125
158.212,0.0621337890625
158.222,-0.017791748046875
158.232,-0.1048583984375
158.242,-0.1810302734375
158.252,-0.2288818359375
158.262,-0.232421875
158.272,-0.1875
158.282,-0.10247802734375
158.292,0.004425048828125
158.302,0.1046142578125
158.312,0.17236328125
158.322,0.193603515625
158.329,0.1668701171875
158.339,0.1033935546875
158.349,0.018402099609375
158.359,-0.072021484375
158.369,-0.148681640625
158.379,-0.19580078125
158.389,-0.204833984375
158.399,-0.1741943359375
158.409,-0.11090087890625
158.419,-0.0245513916015625
158.429,0.07330322265625
158.439,0.1650390625
158.449,0.233154296875
158.459,0.26611328125
158.469,0.258056640625
158.479,0.2119140625
158.489,0.143310546875
158.499,0.07330322265625
158.509,0.0148773193359375
158.519,-0.026947021484375
158.528,-0.050750732421875
158.538,-0.061370849609375
158.548,-0.067138671875
158.558,-0.072509765625
158.568,-0.07806396484375
158.578,-0.08349609375
158.588,-0.08612060546875
158.598,-0.081298828125
158.608,-0.065673828125
158.618,-0.04180908203125
158.628,-0.0135040283203125
158.638,0.0209503173828125
158.648,0.06292724609375
158.658,0.10687255859375
158.668,0.1427001953125
158.678,0.1593017578125
158.688,0.1490478515625
158.698,0.1124267578125
158.708,0.054168701171875
158.718,-0.01824951171875
158.727,-0.09130859375
158.737,-0.146484375
158.747,-0.1693115234375
158.757,-0.156982421875
158.767,-0.11822509765625
158.777,-0.06585693359375
158.787,-0.0115890502929688
158.797,0.036041259765625
158.807,0.07080078125
158.817,0.0882568359375
158.827,0.08538818359375
158.837,0.0628662109375
158.847,0.0273895263671875
158.857,-0.0132293701171875
158.867,-0.0540771484375
158.877,-0.0897216796875
158.887,-0.1134033203125
158.897,-0.1217041015625
158.907,-0.114990234375
158.917,-0.09649658203125
158.921,0.102294921875
158.931,0.1337890625
158.941,0.1419677734375
158.951,0.12115478515625
158.961,0.07049560546875
158.971,0.0016632080078125
158.981,-0.06640625
158.991,-0.117919921875
159.001,-0.1409912109375
159.011,-0.1265869140625
159.021,-0.0745849609375
159.031,-0.00163364410400391
159.041,0.06689453125
159.051,0.11285400390625
159.061,0.1312255859375
159.071,0.12310791015625
159.079,0.08990478515625
159.089,0.0362548828125
159.099,-0.0248870849609375
159.109,-0.07293701171875
159.119,-0.0914306640625
159.129,-0.07989501953125
159.139,-0.05419921875
159.149,-0.033538818359375
159.159,-0.0283050537109375
159.169,-0.03704833984375
159.179,-0.053466796875
159.189,-0.0733642578125
159.199,-0.0916748046875
159.209,-0.0985107421875
159.219,-0.08935546875
159.229,-0.0709228515625
159.239,-0.050872802734375
159.249,-0.0325927734375
159.259,-0.0182037353515625
159.269,-0.00922393798828125
159.278,-0.00531768798828125
159.288,-0.00579452514648438
159.298,-0.0106353759765625
159.308,-0.016876220703125
159.318,-0.0192718505859375
159.328,-0.0149002075195312
159.338,-0.00179100036621094
159.348,0.0204010009765625
159.358,0.043182373046875
159.368,0.054046630859375
159.378,0.04766845703125
159.388,0.022552490234375
159.398,-0.0233001708984375
159.408,-0.0853271484375
159.418,-0.151123046875
159.428,-0.206787109375
159.438,-0.2384033203125
159.448,-0.2364501953125
159.458,-0.202880859375
159.468,-0.1522216796875
159.473,-0.1304931640625
159.483,-0.1593017578125
159.493,-0.1849365234375
159.503,-0.201171875
159.513,-0.2080078125
159.523,-0.20654296875
159.533,-0.1982421875
159.543,-0.189697265625
159.553,-0.1845703125
159.563,-0.1756591796875
159.573,-0.15625
159.583,-0.12548828125
159.593,-0.079345703125
159.603,-0.0128402709960938
159.613,0.06365966796875
159.623,0.1265869140625
159.63,0.15771484375
159.64,0.1484375
159.65,0.0946044921875
159.66,-0.00130462646484375
159.67,-0.12188720703125
159.68,-0.23779296875
159.69,-0.32421875
159.7,-0.368896484375
159.71,-0.360595703125
159.72,-0.29150390625
159.73,-0.18408203125
159.74,-0.086181640625
159.75,-0.03594970703125
159.76,-0.042449951171875
159.77,-0.09527587890625
159.78,-0.1754150390625
159.79,-0.255859375
159.8,-0.30224609375
159.81,-0.288330078125
159.82,-0.220703125
159.829,-0.1343994140625
159.839,-0.060516357421875
159.849,-0.0135574340820312
159.859,-0.009063720703125
159.869,-0.0567626953125
159.879,-0.13818359375
159.889,-0.2186279296875
159.899,-0.275390625
159.909,-0.306396484375
159.919,-0.32177734375
159.929,-0.328857421875
159.939,-0.320556640625
159.949,-0.291015625
159.959,-0.25244140625
159.969,-0.2154541015625
159.979,-0.1715087890625
159.989,-0.11480712890625
159.999,-0.061004638671875
160.009,-0.03631591796875
160.019,-0.059783935546875
160.028,-0.12841796875
160.038,-0.2054443359375
160.048,-0.2469482421875
160.058,-0.2471923828125
160.068,-0.2303466796875
160.078,-0.2138671875
160.088,-0.2078857421875
160.098,-0.2158203125
160.108,-0.2208251953125
160.118,-0.2030029296875
160.128,-0.1630859375
160.138,-0.12127685546875
160.148,-0.10687255859375
160.158,-0.1376953125
160.168,-0.2020263671875
160.178,-0.269287109375
160.188,-0.31103515625
160.198,-0.314453125
160.208,-0.288330078125
160.218,-0.25439453125
160.223,-0.2147216796875
160.233,-0.184326171875
160.243,-0.1666259765625
160.253,-0.1761474609375
160.263,-0.215087890625
160.273,-0.274658203125
160.283,-0.3369140625
160.293,-0.381103515625
160.303,-0.388916015625
160.313,-0.345703125
160.323,-0.251953125
160.333,-0.1298828125
160.343,-0.0186920166015625
160.353,0.043121337890625
160.363,0.034210205078125
160.373,-0.0401611328125
160.38,-0.155029296875
160.39,-0.279296875
160.4,-0.387939453125
160.41,-0.47021484375
160.42,-0.52294921875
160.43,-0.54150390625
160.44,-0.51513671875
160.45,-0.443359375
160.46,-0.346923828125
160.47,-0.25732421875
160.48,-0.1990966796875
160.49,-0.1812744140625
160.5,-0.200439453125
160.51,-0.253173828125
160.52,-0.34326171875
160.53,-0.4697265625
160.54,-0.6083984375
160.55,-0.7158203125
160.56,-0.75634765625
160.57,-0.73779296875
160.579,-0.70458984375
160.589,-0.6904296875
160.599,-0.6923828125
160.609,-0.70068359375
160.619,-0.71826171875
160.629,-0.75439453125
160.639,-0.8115234375
160.649,-0.890625
160.659,-0.99560546875
160.669,-1.1103515625
160.679,-1.19921875
160.689,-1.2275390625
160.699,-1.1875
160.709,-1.087890625
160.719,-0.95703125
160.729,-0.818359375
160.739,-0.69091796875
160.749,-0.60009765625
160.759,-0.56689453125
160.769,-0.5849609375
160.778,-0.6357421875
160.788,-0.7060546875
160.798,-0.7861328125
160.808,-0.86181640625
160.818,-0.91796875
160.828,-0.9375
160.838,-0.9091796875
160.848,-0.84326171875
160.858,-0.75927734375
160.868,-0.677734375
160.878,-0.615234375
160.888,-0.5751953125
160.898,-0.55810546875
160.908,-0.572265625
160.918,-0.61865234375
160.928,-0.681640625
160.938,-0.73876953125
160.948,-0.77197265625
160.958,-0.76953125
160.968,-0.73291015625
160.973,-0.478515625
160.983,-0.49951171875
160.993,-0.55224609375
161.003,-0.6171875
161.013,-0.669921875
161.023,-0.69189453125
161.033,-0.6796875
161.043,-0.64208984375
161.053,-0.58935546875
161.063,-0.53271484375
161.073,-0.4814453125
161.083,-0.439208984375
161.093,-0.4052734375
161.103,-0.378662109375
161.113,-0.361083984375
161.123,-0.3505859375
161.13,-0.34375
161.14,-0.338623046875
161.15,-0.33544921875
161.16,-0.334716796875
161.17,-0.342041015625
161.18,-0.37109375
161.19,-0.427001953125
161.2,-0.4921875
161.21,-0.54443359375
161.22,-0.57568359375
161.23,-0.58642578125
161.24,-0.58056640625
161.25,-0.560546875
161.26,-0.5302734375
161.27,-0.498291015625
161.28,-0.472412109375
161.29,-0.46044921875
161.3,-0.468505859375
161.31,-0.49462890625
161.32,-0.52587890625
161.329,-0.552734375
161.339,-0.56787109375
161.349,-0.56494140625
161.359,-0.5380859375
161.369,-0.487548828125
161.379,-0.425048828125
161.389,-0.372314453125
161.399,-0.35009765625
161.409,-0.365478515625
161.419,-0.406005859375
161.429,-0.449462890625
161.439,-0.47607421875
161.449,-0.478515625
161.459,-0.463134765625
161.469,-0.444091796875
161.479,-0.43212890625
161.489,-0.432373046875
161.499,-0.4453125
161.509,-0.4677734375
161.519,-0.49658203125
161.528,-0.529296875
161.538,-0.55517578125
161.548,-0.5615234375
161.558,-0.548828125
161.568,-0.5244140625
161.578,-0.489501953125
161.588,-0.444091796875
161.598,-0.401123046875
161.608,-0.379150390625
161.618,-0.37744140625
161.628,-0.381591796875
161.638,-0.382568359375
161.648,-0.381591796875
161.658,-0.39306640625
161.668,-0.43603515625
161.678,-0.50341796875
161.688,-0.5673828125
161.698,-0.60888671875
161.708,-0.6201171875
161.718,-0.5947265625
161.723,-0.09454345703125
161.733,0.00125789642333984
161.743,0.058868408203125
161.753,0.07037353515625
161.763,0.032196044921875
161.773,-0.04595947265625
161.783,-0.1435546875
161.793,-0.240966796875
161.803,-0.318115234375
161.813,-0.359619140625
161.823,-0.3603515625
161.833,-0.322998046875
161.843,-0.2529296875
161.853,-0.1663818359375
161.863,-0.0888671875
161.873,-0.0413818359375
161.88,-0.028594970703125
161.89,-0.046417236328125
161.9,-0.0897216796875
161.91,-0.1483154296875
161.92,-0.204345703125
161.93,-0.23828125
161.94,-0.2388916015625
161.95,-0.20947265625
161.96,-0.1651611328125
161.97,-0.12432861328125
161.98,-0.09967041015625
161.99,-0.09271240234375
162,-0.1015625
162.01,-0.125244140625
162.02,-0.1583251953125
162.03,-0.192138671875
162.04,-0.2220458984375
162.05,-0.2471923828125
162.06,-0.27197265625
162.07,-0.305908203125
162.079,-0.350830078125
162.089,-0.397216796875
162.099,-0.4267578125
162.109,-0.421875
162.119,-0.379638671875
162.129,-0.316162109375
162.139,-0.251953125
162.149,-0.1978759765625
162.159,-0.1566162109375
162.169,-0.1248779296875
162.179,-0.08758544921875
162.189,-0.03546142578125
162.199,0.021209716796875
162.209,0.074462890625
162.219,0.124267578125
162.229,0.1646728515625
162.239,0.1884765625
162.249,0.1903076171875
162.259,0.164306640625
162.269,0.109619140625
162.278,0.03485107421875
162.288,-0.04876708984375
162.298,-0.1336669921875
162.308,-0.209716796875
162.318,-0.257568359375
162.328,-0.255615234375
162.338,-0.1907958984375
162.348,-0.06903076171875
162.358,0.074951171875
162.368,0.1943359375
162.378,0.258544921875
162.388,0.26318359375
162.398,0.2220458984375
162.408,0.1553955078125
162.418,0.07940673828125
162.428,0.0096282958984375
162.438,-0.03631591796875
162.448,-0.045257568359375
162.458,-0.0160980224609375
162.468,0.0330810546875
162.473,0.114990234375
162.483,0.048797607421875
162.493,-0.046966552734375
162.503,-0.15673828125
162.513,-0.251708984375
162.523,-0.302734375
162.533,-0.2958984375
162.543,-0.2283935546875
162.553,-0.10955810546875
162.563,0.036895751953125
162.573,0.18017578125
162.583,0.2919921875
162.593,0.347900390625
162.603,0.330810546875
162.613,0.23583984375
162.623,0.07879638671875
162.63,-0.1031494140625
162.64,-0.267578125
162.65,-0.38623046875
162.66,-0.449462890625
162.67,-0.462158203125
162.68,-0.4345703125
162.69,-0.374267578125
162.7,-0.28369140625
162.71,-0.1685791015625
162.72,-0.050140380859375
162.73,0.0440673828125
162.74,0.1005859375
162.75,0.1201171875
162.76,0.1051025390625
162.77,0.061767578125
162.78,0.00476837158203125
162.79,-0.04925537109375
162.8,-0.08990478515625
162.81,-0.113037109375
162.82,-0.114501953125
162.829,-0.09503173828125
162.839,-0.065185546875
162.849,-0.030853271484375
162.859,0.00946807861328125
162.869,0.04766845703125
162.879,0.06646728515625
162.889,0.05389404296875
162.899,0.00557708740234375
162.909,-0.07281494140625
162.919,-0.1611328125
162.929,-0.232421875
162.939,-0.267822265625
162.949,-0.263671875
162.959,-0.2259521484375
162.969,-0.158935546875
162.979,-0.071533203125
162.989,0.01556396484375
162.999,0.0821533203125
163.009,0.12237548828125
163.019,0.135986328125
163.028,0.1195068359375
163.038,0.07666015625
163.048,0.0197296142578125
163.058,-0.048614501953125
163.068,-0.1331787109375
163.078,-0.22216796875
163.088,-0.283935546875
163.098,-0.29052734375
163.108,-0.238037109375
163.118,-0.1478271484375
163.128,-0.045654296875
163.138,0.056640625
163.148,0.1494140625
163.158,0.20849609375
163.168,0.213134765625
163.178,0.1690673828125
163.188,0.09332275390625
163.198,-0.00865936279296875
163.208,-0.13330078125
163.218,-0.259033203125
163.223,-0.4111328125
163.233,-0.36962890625
163.243,-0.2958984375
163.253,-0.1981201171875
163.263,-0.09735107421875
163.273,-0.019744873046875
163.283,0.0155410766601562
163.293,0.0065460205078125
163.303,-0.035736083984375
163.313,-0.09881591796875
163.323,-0.175537109375
163.333,-0.2626953125
163.343,-0.349609375
163.353,-0.40966796875
163.363,-0.409423828125
163.373,-0.336669921875
163.38,-0.2191162109375
163.39,-0.10833740234375
163.4,-0.035797119140625
163.41,0.00399017333984375
163.42,0.0297393798828125
163.43,0.043121337890625
163.44,0.028533935546875
163.45,-0.0236968994140625
163.46,-0.10003662109375
163.47,-0.1668701171875
163.48,-0.194091796875
163.49,-0.17236328125
163.5,-0.11041259765625
163.51,-0.031707763671875
163.52,0.037384033203125
163.53,0.08740234375
163.54,0.11859130859375
163.55,0.119873046875
163.56,0.0693359375
163.57,-0.05389404296875
163.579,-0.25244140625
163.589,-0.48388671875
163.599,-0.6669921875
163.609,-0.732421875
163.619,-0.6552734375
163.629,-0.44775390625
163.639,-0.1614990234375
163.649,0.11712646484375
163.659,0.302490234375
163.669,0.357666015625
163.679,0.302978515625
163.689,0.18408203125
163.699,0.041748046875
163.709,-0.0989990234375
163.719,-0.227294921875
163.729,-0.340576171875
163.739,-0.4365234375
163.749,-0.5078125
163.759,-0.54248046875
163.769,-0.52490234375
163.777,-0.443115234375
163.787,-0.302734375
163.797,-0.136474609375
163.807,0.00690078735351562
163.817,0.08660888671875
163.827,0.087890625
163.837,0.0279083251953125
163.847,-0.055938720703125
163.857,-0.129150390625
163.867,-0.17236328125
163.877,-0.1790771484375
163.887,-0.1544189453125
163.897,-0.11175537109375
163.907,-0.06658935546875
163.917,-0.033477783203125
163.927,-0.0251617431640625
163.937,-0.04754638671875
163.947,-0.0958251953125
163.957,-0.158447265625
163.967,-0.220458984375
163.971,-0.1920166015625
163.981,-0.11798095703125
163.991,-0.050750732421875
164.001,-0.0172576904296875
164.011,-0.03466796875
164.021,-0.10076904296875
164.031,-0.1964111328125
164.041,-0.2880859375
164.051,-0.34033203125
164.061,-0.3330078125
164.071,-0.261962890625
164.081,-0.134765625
164.091,0.023712158203125
164.101,0.1749267578125
164.111,0.281982421875
164.121,0.318115234375
164.13,0.27197265625
164.14,0.1561279296875
164.15,-0.00145149230957031
164.16,-0.1678466796875
164.17,-0.31005859375
164.18,-0.40478515625
164.19,-0.448486328125
164.2,-0.44873046875
164.21,-0.4189453125
164.22,-0.376220703125
164.23,-0.337646484375
164.24,-0.313720703125
164.25,-0.30224609375
164.26,-0.290771484375
164.27,-0.27099609375
164.28,-0.2474365234375
164.29,-0.224853515625
164.3,-0.2061767578125
164.31,-0.191650390625
164.32,-0.176025390625
164.329,-0.15673828125
164.339,-0.1365966796875
164.349,-0.11602783203125
164.359,-0.0960693359375
164.369,-0.07830810546875
164.379,-0.0587158203125
164.389,-0.036529541015625
164.399,-0.017852783203125
164.409,-0.00223922729492188
164.419,0.0147628784179688
164.429,0.030029296875
164.439,0.0372314453125
164.449,0.033477783203125
164.459,0.0209808349609375
164.469,0.00862884521484375
164.479,0.00309944152832031
164.489,0.00243377685546875
164.499,0.00366401672363281
164.509,0.00370979309082031
164.519,-0.0025482177734375
164.527,-0.0167236328125
164.537,-0.037872314453125
164.547,-0.0631103515625
164.557,-0.08441162109375
164.567,-0.094482421875
164.577,-0.08837890625
164.587,-0.05889892578125
164.597,-0.00648117065429688
164.607,0.0546875
164.617,0.1102294921875
164.627,0.1541748046875
164.637,0.1861572265625
164.647,0.213134765625
164.657,0.2418212890625
164.667,0.26904296875
164.677,0.28466796875
164.687,0.274658203125
164.697,0.226806640625
164.707,0.145751953125
164.717,0.046173095703125
164.721,-0.5673828125
164.731,-0.74609375
164.741,-0.9111328125
164.751,-1.0419921875
164.761,-1.138671875
164.771,-1.205078125
164.781,-1.2470703125
164.791,-1.275390625
164.801,-1.30078125
164.811,-1.3291015625
164.821,-1.353515625
164.831,-1.359375
164.841,-1.3388671875
164.851,-1.2958984375
164.861,-1.24609375
164.871,-1.1962890625
164.88,-1.1396484375
164.89,-1.0859375
164.9,-1.0654296875
164.91,-1.1025390625
164.92,-1.181640625
164.93,-1.2470703125
164.94,-1.24609375
164.95,-1.1611328125
164.96,-1.01953125
164.97,-0.880859375
164.98,-0.81201171875
164.99,-0.86474609375
165,-1.048828125
165.01,-1.328125
165.02,-1.626953125
165.03,-1.8564453125
165.04,-1.9404296875
165.05,-1.8603515625
165.06,-1.6708984375
165.07,-1.4609375
165.079,-1.298828125
165.089,-1.2060546875
165.099,-1.1728515625
165.109,-1.173828125
165.119,-1.1865234375
165.129,-1.2060546875
165.139,-1.2265625
165.149,-1.240234375
165.159,-1.248046875
165.169,-1.2490234375
165.179,-1.2412109375
165.189,-1.248046875
165.199,-1.2880859375
165.209,-1.34375
165.219,-1.3701171875
165.229,-1.3515625
165.239,-1.3017578125
165.249,-1.2333984375
165.259,-1.16015625
165.269,-1.1005859375
165.277,-1.076171875
165.287,-1.0859375
165.297,-1.1025390625
165.307,-1.095703125
165.317,-1.0625
165.327,-1.03125
165.337,-1.0400390625
165.347,-1.0869140625
165.357,-1.130859375
165.367,-1.140625
165.377,-1.130859375
165.387,-1.126953125
165.397,-1.134765625
165.407,-1.146484375
165.417,-1.166015625
165.427,-1.197265625
165.437,-1.228515625
165.447,-1.2548828125
165.457,-1.2822265625
165.467,-1.3125
165.471,-1.3115234375
165.481,-1.2490234375
165.491,-1.1572265625
165.501,-1.0537109375
165.511,-0.9599609375
165.521,-0.890625
165.531,-0.859375
165.541,-0.873046875
165.551,-0.9228515625
165.561,-0.99072265625
165.571,-1.05859375
165.581,-1.1142578125
165.591,-1.146484375
165.601,-1.15625
165.611,-1.1455078125
165.621,-1.123046875
165.631,-1.1025390625
165.641,-1.08984375
165.651,-1.07421875
165.661,-1.0400390625
165.671,-0.998046875
165.681,-0.98193359375
165.691,-1.017578125
165.701,-1.09375
165.711,-1.1796875
165.721,-1.2529296875
165.731,-1.3076171875
165.741,-1.337890625
165.751,-1.3271484375
165.761,-1.2685546875
165.771,-1.1787109375
165.781,-1.0869140625
165.791,-1.00390625
165.801,-0.91748046875
165.811,-0.82470703125
165.821,-0.75537109375
165.829,-0.7548828125
165.839,-0.84423828125
165.849,-0.98876953125
165.859,-1.111328125
165.869,-1.154296875
165.879,-1.123046875
165.889,-1.078125
165.899,-1.076171875
165.909,-1.1083984375
165.919,-1.1142578125
165.929,-1.0693359375
165.939,-1.0146484375
165.949,-1.0078125
165.959,-1.0595703125
165.969,-1.115234375
165.979,-1.1181640625
165.989,-1.0615234375
165.999,-0.9931640625
166.009,-0.95556640625
166.019,-0.9404296875
166.027,-0.91064453125
166.037,-0.85400390625
166.047,-0.79541015625
166.057,-0.771484375
166.067,-0.78955078125
166.077,-0.8193359375
166.087,-0.81640625
166.097,-0.76025390625
166.107,-0.67431640625
166.117,-0.60498046875
166.127,-0.5927734375
166.137,-0.6630859375
166.147,-0.81982421875
166.157,-1.03125
166.167,-1.2353515625
166.177,-1.359375
166.187,-1.35546875
166.197,-1.228515625
166.207,-1.0302734375
166.217,-0.84521484375
166.221,-1.1298828125
166.231,-1.1220703125
166.241,-1.0068359375
166.251,-0.82763671875
166.261,-0.6513671875
166.271,-0.5419921875
166.281,-0.53466796875
166.291,-0.62255859375
166.301,-0.76171875
166.311,-0.89111328125
166.321,-0.95361328125
166.331,-0.91796875
166.341,-0.78369140625
166.351,-0.572265625
166.361,-0.318603515625
166.371,-0.05755615234375
166.38,0.1829833984375
166.39,0.37841796875
166.4,0.5048828125
166.41,0.54541015625
166.42,0.49755859375
166.43,0.367919921875
166.44,0.1685791015625
166.45,-0.0863037109375
166.46,-0.380126953125
166.47,-0.69287109375
166.48,-1.005859375
166.49,-1.3037109375
166.5,-1.57421875
166.51,-1.802734375
166.52,-1.9716796875
166.53,-2.0703125
166.54,-2.087890625
166.55,-2.03125
166.56,-1.912109375
166.57,-1.7451171875
166.579,-1.53515625
166.589,-1.29296875
166.599,-1.0283203125
166.609,-0.7529296875
166.619,-0.470458984375
166.629,-0.1822509765625
166.639,0.10968017578125
166.649,0.39501953125
166.659,0.65771484375
166.669,0.88232421875
166.679,1.0576171875
166.689,1.1767578125
166.699,1.2333984375
166.709,1.2177734375
166.719,1.123046875
166.729,0.9716796875
166.739,0.79833984375
166.749,0.62548828125
166.759,0.45751953125
166.769,0.300048828125
166.777,0.1558837890625
166.787,0.0217132568359375
166.797,-0.094970703125
166.807,-0.17431640625
166.817,-0.2205810546875
166.827,-0.279052734375
166.837,-0.3935546875
166.847,-0.5615234375
166.857,-0.75146484375
166.867,-0.9453125
166.877,-1.1376953125
166.887,-1.3046875
166.897,-1.41015625
166.907,-1.4501953125
166.917,-1.4619140625
166.927,-1.486328125
166.937,-1.5302734375
166.947,-1.5712890625
166.957,-1.591796875
166.967,-1.6025390625
166.971,-1.4599609375
166.981,-1.40234375
166.991,-1.4052734375
167.001,-1.48046875
167.011,-1.6259765625
167.021,-1.837890625
167.031,-2.10546875
167.041,-2.390625
167.051,-2.646484375
167.061,-2.841796875
167.071,-2.951171875
167.081,-2.9765625
167.091,-2.947265625
167.101,-2.90234375
167.111,-2.857421875
167.121,-2.802734375
167.13,-2.701171875
167.14,-2.513671875
167.15,-2.208984375
167.16,-1.783203125
167.17,-1.2529296875
167.18,-0.65771484375
167.19,-0.046905517578125
167.2,0.5302734375
167.21,1.0322265625
167.22,1.4296875
167.23,1.71484375
167.24,1.9052734375
167.25,2.02734375
167.26,2.10546875
167.27,2.150390625
167.28,2.16015625
167.29,2.126953125
167.3,2.037109375
167.31,1.8720703125
167.32,1.6298828125
167.329,1.31640625
167.339,0.94482421875
167.349,0.5263671875
167.359,0.08172607421875
167.369,-0.363525390625
167.379,-0.787109375
167.389,-1.1689453125
167.399,-1.484375
167.409,-1.701171875
167.419,-1.7900390625
167.429,-1.7314453125
167.439,-1.5205078125
167.449,-1.17578125
167.459,-0.73193359375
167.469,-0.2265625
167.479,0.298583984375
167.489,0.78125
167.499,1.140625
167.509,1.3095703125
167.519,1.25390625
167.527,0.98828125
167.537,0.57421875
167.547,0.11212158203125
167.557,-0.284423828125
167.567,-0.5185546875
167.577,-0.53369140625
167.587,-0.328857421875
167.597,0.03228759765625
167.607,0.437255859375
167.617,0.7646484375
167.627,0.91552734375
167.637,0.83837890625
167.647,0.55126953125
167.657,0.150634765625
167.667,-0.218505859375
167.677,-0.427978515625
167.687,-0.42041015625
167.697,-0.2225341796875
167.707,0.0709228515625
167.717,0.3251953125
167.722,-0.69775390625
167.732,-0.7470703125
167.742,-0.5771484375
167.752,-0.251953125
167.762,0.09796142578125
167.772,0.32470703125
167.782,0.35546875
167.792,0.2366943359375
167.802,0.0797119140625
167.812,-0.0222015380859375
167.822,-0.036895751953125
167.832,0.009124755859375
167.842,0.0513916015625
167.852,0.0206298828125
167.862,-0.1146240234375
167.872,-0.319580078125
167.88,-0.5107421875
167.89,-0.60693359375
167.9,-0.56787109375
167.91,-0.39697265625
167.92,-0.138427734375
167.93,0.11578369140625
167.94,0.247314453125
167.95,0.180419921875
167.96,-0.057220458984375
167.97,-0.349609375
167.98,-0.55859375
167.99,-0.58056640625
168,-0.387939453125
168.01,-0.05810546875
168.02,0.2332763671875
168.03,0.296630859375
168.04,0.04644775390625
168.05,-0.441650390625
168.06,-0.97412109375
168.07,-1.337890625
168.078,-1.3896484375
168.088,-1.119140625
168.098,-0.66357421875
168.108,-0.2362060546875
168.118,-0.0105361938476562
168.128,-0.021697998046875
168.138,-0.171142578125
168.148,-0.3046875
168.158,-0.311279296875
168.168,-0.188232421875
168.178,-0.0303955078125
168.188,0.05035400390625
168.198,0.0130538940429688
168.208,-0.09063720703125
168.218,-0.1669921875
168.228,-0.153076171875
168.238,-0.0650634765625
168.248,0.016326904296875
168.258,0.020263671875
168.268,-0.051177978515625
168.277,-0.13427734375
168.287,-0.16650390625
168.297,-0.1400146484375
168.307,-0.09674072265625
168.317,-0.07452392578125
168.327,-0.06744384765625
168.337,-0.04193115234375
168.347,0.0124435424804688
168.357,0.06219482421875
168.367,0.069580078125
168.377,0.039276123046875
168.387,0.0103302001953125
168.397,0.00710678100585938
168.407,0.00872802734375
168.417,-0.021881103515625
168.427,-0.0826416015625
168.437,-0.125244140625
168.447,-0.1112060546875
168.457,-0.05792236328125
168.467,-0.0111160278320312
168.471,0.3017578125
168.481,0.263671875
168.491,0.1832275390625
168.501,0.1033935546875
168.511,0.029296875
168.521,-0.044586181640625
168.531,-0.09564208984375
168.541,-0.09747314453125
168.551,-0.06341552734375
168.561,-0.0300140380859375
168.571,-0.00691604614257812
168.581,0.024871826171875
168.591,0.06793212890625
168.601,0.09661865234375
168.611,0.09576416015625
168.621,0.07708740234375
168.63,0.0511474609375
168.64,0.0125579833984375
168.65,-0.040069580078125
168.66,-0.09100341796875
168.67,-0.1259765625
168.68,-0.1466064453125
168.69,-0.1575927734375
168.7,-0.154541015625
168.71,-0.12939453125
168.72,-0.0841064453125
168.73,-0.028961181640625
168.74,0.021881103515625
168.75,0.054718017578125
168.76,0.06805419921875
168.77,0.076171875
168.78,0.0908203125
168.79,0.10809326171875
168.8,0.1197509765625
168.81,0.12005615234375
168.82,0.10223388671875
168.828,0.0662841796875
168.838,0.0223846435546875
168.848,-0.020355224609375
168.858,-0.05712890625
168.868,-0.080810546875
168.878,-0.08734130859375
168.888,-0.0841064453125
168.898,-0.08038330078125
168.908,-0.07757568359375
168.918,-0.07659912109375
168.928,-0.07965087890625
168.938,-0.0865478515625
168.948,-0.09814453125
168.958,-0.112548828125
168.968,-0.12152099609375
168.978,-0.12359619140625
168.988,-0.1199951171875
168.998,-0.10113525390625
169.008,-0.062286376953125
169.018,-0.0164337158203125
169.027,0.023040771484375
169.037,0.052276611328125
169.047,0.07220458984375
169.057,0.0853271484375
169.067,0.09051513671875
169.077,0.08221435546875
169.087,0.058746337890625
169.097,0.0236663818359375
169.107,-0.0224151611328125
169.117,-0.08416748046875
169.127,-0.1591796875
169.137,-0.2314453125
169.147,-0.280517578125
169.157,-0.292724609375
169.167,-0.264892578125
169.177,-0.203125
169.187,-0.1202392578125
169.197,-0.037261962890625
169.207,0.0216827392578125
169.217,0.0413818359375
169.222,-0.26416015625
169.232,-0.29296875
169.242,-0.285400390625
169.252,-0.25048828125
169.262,-0.212158203125
169.272,-0.198486328125
169.282,-0.22216796875
169.292,-0.27587890625
169.302,-0.34326171875
169.312,-0.407958984375
169.322,-0.47119140625
169.332,-0.5537109375
169.342,-0.65869140625
169.352,-0.7587890625
169.362,-0.84619140625
169.372,-0.943359375
169.38,-1.052734375
169.39,-1.138671875
169.4,-1.169921875
169.41,-1.1552734375
169.42,-1.1162109375
169.43,-1.06640625
169.44,-1.0234375
169.45,-1.00390625
169.46,-0.9970703125
169.47,-0.9892578125
169.48,-0.98583984375
169.49,-0.97705078125
169.5,-0.93701171875
169.51,-0.86669921875
169.52,-0.78857421875
169.53,-0.71484375
169.54,-0.64794921875
169.55,-0.6064453125
169.56,-0.60888671875
169.57,-0.63720703125
169.578,-0.6640625
169.588,-0.689453125
169.598,-0.72705078125
169.608,-0.7646484375
169.618,-0.78369140625
169.628,-0.79052734375
169.638,-0.7919921875
169.648,-0.77490234375
169.658,-0.72802734375
169.668,-0.6748046875
169.678,-0.646484375
169.688,-0.6396484375
169.698,-0.62841796875
169.708,-0.61474609375
169.718,-0.63623046875
169.728,-0.70751953125
169.738,-0.78662109375
169.748,-0.814453125
169.758,-0.78271484375
169.768,-0.7490234375
169.777,-0.7744140625
169.787,-0.8525390625
169.797,-0.9130859375
169.807,-0.896484375
169.817,-0.8193359375
169.827,-0.759765625
169.837,-0.7744140625
169.847,-0.837890625
169.857,-0.87060546875
169.867,-0.8173828125
169.877,-0.7060546875
169.887,-0.6240234375
169.897,-0.6416015625
169.907,-0.74755859375
169.917,-0.85546875
169.927,-0.86962890625
169.937,-0.7587890625
169.947,-0.58056640625
169.957,-0.449462890625
169.967,-0.459716796875
169.971,-1.2900390625
169.981,-1.1142578125
169.991,-0.8603515625
170.001,-0.634765625
170.011,-0.53173828125
170.021,-0.59228515625
170.031,-0.78271484375
170.041,-1.005859375
170.051,-1.15234375
170.061,-1.15234375
170.071,-0.99853515625
170.081,-0.72412109375
170.091,-0.38623046875
170.101,-0.065185546875
170.111,0.146728515625
170.121,0.17138671875
170.13,-0.030731201171875
170.14,-0.445556640625
170.15,-1.00390625
170.16,-1.6025390625
170.17,-2.1328125
170.18,-2.50390625
170.19,-2.640625
170.2,-2.505859375
170.21,-2.12109375
170.22,-1.55859375
170.23,-0.92431640625
170.24,-0.320068359375
170.25,0.16845703125
170.26,0.48486328125
170.27,0.60302734375
170.28,0.5185546875
170.29,0.2474365234375
170.3,-0.171142578125
170.31,-0.6796875
170.32,-1.216796875
170.328,-1.73046875
170.338,-2.177734375
170.348,-2.5234375
170.358,-2.74609375
170.368,-2.833984375
170.378,-2.791015625
170.388,-2.630859375
170.398,-2.376953125
170.408,-2.048828125
170.418,-1.6640625
170.428,-1.2314453125
170.438,-0.77099609375
170.448,-0.314697265625
170.458,0.11041259765625
170.468,0.495361328125
170.478,0.837890625
170.488,1.126953125
170.498,1.333984375
170.508,1.42578125
170.518,1.3828125
170.527,1.2099609375
170.537,0.93212890625
170.547,0.59521484375
170.557,0.269287109375
170.567,0.0277252197265625
170.577,-0.08453369140625
170.587,-0.0611572265625
170.597,0.0687255859375
170.607,0.24365234375
170.617,0.385986328125
170.627,0.434326171875
170.637,0.375732421875
170.647,0.256591796875
170.657,0.15185546875
170.667,0.115478515625
170.677,0.1458740234375
170.687,0.1845703125
170.697,0.14794921875
170.707,-0.018951416015625
170.717,-0.3017578125
170.722,-0.2374267578125
170.732,0.21533203125
170.742,0.56689453125
170.752,0.7255859375
170.762,0.6806640625
170.772,0.49267578125
170.782,0.259765625
170.792,0.07464599609375
170.802,-0.0112991333007812
170.812,-0.00175285339355469
170.822,0.051666259765625
170.832,0.0810546875
170.842,0.046142578125
170.852,-0.039642333984375
170.862,-0.11859130859375
170.872,-0.125732421875
170.88,-0.0350341796875
170.89,0.11395263671875
170.9,0.2340087890625
170.91,0.2418212890625
170.92,0.10595703125
170.93,-0.1326904296875
170.94,-0.376953125
170.95,-0.5185546875
170.96,-0.4951171875
170.97,-0.317626953125
170.98,-0.06500244140625
170.99,0.1549072265625
171,0.2496337890625
171.01,0.18603515625
171.02,0.0107421875
171.03,-0.1771240234375
171.04,-0.282958984375
171.05,-0.26708984375
171.06,-0.1617431640625
171.07,-0.04315185546875
171.078,0.0220794677734375
171.088,0.01861572265625
171.098,-0.0195770263671875
171.108,-0.0413818359375
171.118,-0.01568603515625
171.128,0.04925537109375
171.138,0.11468505859375
171.148,0.1392822265625
171.158,0.1077880859375
171.168,0.0379638671875
171.178,-0.039794921875
171.188,-0.10394287109375
171.198,-0.1461181640625
171.208,-0.1689453125
171.218,-0.1788330078125
171.228,-0.1746826171875
171.238,-0.150390625
171.248,-0.1033935546875
171.258,-0.03521728515625
171.268,0.047515869140625
171.277,0.1329345703125
171.287,0.207763671875
171.297,0.25927734375
171.307,0.277587890625
171.317,0.2626953125
171.327,0.22802734375
171.337,0.1895751953125
171.347,0.1524658203125
171.357,0.10797119140625
171.367,0.046905517578125
171.377,-0.0218048095703125
171.387,-0.07415771484375
171.397,-0.095458984375
171.407,-0.09521484375
171.417,-0.0909423828125
171.427,-0.084716796875
171.437,-0.06683349609375
171.447,-0.0372314453125
171.457,-0.0116500854492188
171.467,-0.00314903259277344
171.471,-0.10064697265625
171.481,-0.090087890625
171.491,-0.050048828125
171.501,0.00798797607421875
171.511,0.06768798828125
171.521,0.10986328125
171.531,0.11614990234375
171.541,0.08380126953125
171.551,0.0303192138671875
171.561,-0.0230255126953125
171.571,-0.0604248046875
171.581,-0.06866455078125
171.591,-0.043975830078125
171.601,0.00183486938476562
171.611,0.05230712890625
171.621,0.09588623046875
171.63,0.121337890625
171.64,0.12017822265625
171.65,0.09954833984375
171.66,0.07501220703125
171.67,0.054229736328125
171.68,0.0418701171875
171.69,0.046783447265625
171.7,0.0662841796875
171.71,0.07940673828125
171.72,0.0687255859375
171.73,0.03143310546875
171.74,-0.034393310546875
171.75,-0.1275634765625
171.76,-0.2259521484375
171.77,-0.2802734375
171.78,-0.2296142578125
171.79,-0.0469970703125
171.8,0.2144775390625
171.81,0.449951171875
171.82,0.5869140625
171.828,0.63037109375
171.838,0.60888671875
171.848,0.51171875
171.858,0.322998046875
171.868,0.0628662109375
171.878,-0.203369140625
171.888,-0.3798828125
171.898,-0.3896484375
171.908,-0.2452392578125
171.918,-0.056610107421875
171.928,0.06781005859375
171.938,0.1353759765625
171.948,0.2437744140625
171.958,0.42333984375
171.968,0.5595703125
171.978,0.50732421875
171.988,0.2459716796875
171.998,-0.1114501953125
172.008,-0.392333984375
172.018,-0.454345703125
172.027,-0.2744140625
172.037,0.03472900390625
172.047,0.318115234375
172.057,0.47802734375
172.067,0.4990234375
172.077,0.442138671875
172.087,0.410400390625
172.097,0.4716796875
172.107,0.59326171875
172.117,0.66748046875
172.127,0.60986328125
172.137,0.421875
172.147,0.1654052734375
172.157,-0.08404541015625
172.167,-0.2471923828125
172.177,-0.240234375
172.187,-0.0305633544921875
172.197,0.284423828125
172.207,0.51513671875
172.217,0.529296875
172.222,-0.51025390625
172.232,-0.275390625
172.242,0.0831298828125
172.252,0.430908203125
172.262,0.64306640625
172.272,0.64111328125
172.282,0.42236328125
172.292,0.06317138671875
172.302,-0.311767578125
172.312,-0.583984375
172.322,-0.67822265625
172.332,-0.5654296875
172.342,-0.265869140625
172.352,0.137939453125
172.362,0.5205078125
172.372,0.76123046875
172.38,0.7890625
172.39,0.6015625
172.4,0.2548828125
172.41,-0.1663818359375
172.42,-0.5732421875
172.43,-0.888671875
172.44,-1.0498046875
172.45,-1.0107421875
172.46,-0.7705078125
172.47,-0.387939453125
172.48,0.048858642578125
172.49,0.467041015625
172.5,0.82568359375
172.51,1.1005859375
172.52,1.26171875
172.53,1.2724609375
172.54,1.11328125
172.55,0.810546875
172.56,0.429931640625
172.57,0.033477783203125
172.578,-0.344482421875
172.588,-0.68798828125
172.598,-0.99169921875
172.608,-1.2626953125
172.618,-1.5087890625
172.628,-1.7294921875
172.638,-1.9111328125
172.648,-2.03515625
172.658,-2.08203125
172.668,-2.052734375
172.678,-1.9736328125
172.688,-1.8798828125
172.698,-1.818359375
172.708,-1.82421875
172.718,-1.875
172.728,-1.9013671875
172.738,-1.8203125
172.748,-1.5673828125
172.758,-1.134765625
172.768,-0.5791015625
172.777,0.0125045776367188
172.787,0.55859375
172.797,0.98779296875
172.807,1.248046875
172.817,1.32421875
172.827,1.236328125
172.837,1.0234375
172.847,0.73828125
172.857,0.426513671875
172.867,0.1376953125
172.877,-0.0816650390625
172.887,-0.2059326171875
172.897,-0.2393798828125
172.907,-0.203857421875
172.917,-0.1302490234375
172.927,-0.050811767578125
172.937,0.0141983032226562
172.947,0.054046630859375
172.957,0.056976318359375
172.967,0.0198822021484375
172.971,-0.1708984375
172.981,-0.12548828125
172.991,-0.07598876953125
173.001,-0.058197021484375
173.011,-0.0926513671875
173.021,-0.1734619140625
173.031,-0.279052734375
173.041,-0.389892578125
173.051,-0.498046875
173.061,-0.6025390625
173.071,-0.6953125
173.081,-0.7587890625
173.091,-0.77734375
173.101,-0.751953125
173.111,-0.6982421875
173.121,-0.63134765625
173.129,-0.556640625
173.139,-0.470458984375
173.149,-0.380126953125
173.159,-0.302978515625
173.169,-0.24609375
173.179,-0.20068359375
173.189,-0.156005859375
173.199,-0.1048583984375
173.209,-0.047271728515625
173.219,0.00206756591796875
173.229,0.024200439453125
173.239,0.0146255493164062
173.249,-0.0142059326171875
173.259,-0.042724609375
173.269,-0.060516357421875
173.279,-0.06939697265625
173.289,-0.06719970703125
173.299,-0.047088623046875
173.309,-0.0118179321289062
173.319,0.029296875
173.328,0.06671142578125
173.338,0.09405517578125
173.348,0.1134033203125
173.358,0.1268310546875
173.368,0.1290283203125
173.378,0.11663818359375
173.388,0.09002685546875
173.398,0.046875
173.408,-0.0125885009765625
173.418,-0.08331298828125
173.428,-0.157470703125
173.438,-0.2177734375
173.448,-0.2440185546875
173.458,-0.2320556640625
173.468,-0.189697265625
173.478,-0.12353515625
173.488,-0.04388427734375
173.498,0.03375244140625
173.508,0.0928955078125
173.518,0.114990234375
173.527,0.09014892578125
173.537,0.0283966064453125
173.547,-0.053985595703125
173.557,-0.1422119140625
173.567,-0.2138671875
173.577,-0.245361328125
173.587,-0.233154296875
173.597,-0.1929931640625
173.607,-0.1414794921875
173.617,-0.0887451171875
173.627,-0.039794921875
173.637,0.00613021850585938
173.647,0.0504150390625
173.657,0.08544921875
173.667,0.09619140625
173.677,0.07025146484375
173.687,0.000553131103515625
173.697,-0.1165771484375
173.707,-0.266845703125
173.717,-0.404541015625
173.721,-0.16552734375
173.731,-0.05718994140625
173.741,0.0111618041992188
173.751,0.035003662109375
173.761,0.0272674560546875
173.771,0.0114974975585938
173.781,0.00140857696533203
173.791,-0.00627517700195312
173.801,-0.0163116455078125
173.811,-0.0279388427734375
173.821,-0.040313720703125
173.831,-0.048828125
173.841,-0.041229248046875
173.851,-0.0106048583984375
173.861,0.0305023193359375
173.871,0.05560302734375
173.879,0.046051025390625
173.889,0.0032958984375
173.899,-0.0679931640625
173.909,-0.1728515625
173.919,-0.310302734375
173.929,-0.458740234375
173.939,-0.5849609375
173.949,-0.6572265625
173.959,-0.650390625
173.969,-0.56201171875
173.979,-0.424560546875
173.989,-0.28271484375
173.999,-0.1650390625
174.009,-0.08258056640625
174.019,-0.0404052734375
174.029,-0.03387451171875
174.039,-0.051788330078125
174.049,-0.08282470703125
174.059,-0.10711669921875
174.069,-0.09271240234375
174.078,-0.0231170654296875
174.088,0.0760498046875
174.098,0.15966796875
174.108,0.20556640625
174.118,0.207275390625
174.128,0.1473388671875
174.138,0.0132522583007812
174.148,-0.1827392578125
174.158,-0.412841796875
174.168,-0.63330078125
174.178,-0.7919921875
174.188,-0.8623046875
174.198,-0.85302734375
174.208,-0.7744140625
174.218,-0.63330078125
174.228,-0.45556640625
174.238,-0.27392578125
174.248,-0.10626220703125
174.258,0.03619384765625
174.268,0.140380859375
174.277,0.2081298828125
174.287,0.24658203125
174.297,0.248291015625
174.307,0.2059326171875
174.317,0.1282958984375
174.327,0.0284576416015625
174.337,-0.08380126953125
174.347,-0.193603515625
174.357,-0.282470703125
174.367,-0.343017578125
174.377,-0.380126953125
174.387,-0.401123046875
174.397,-0.407958984375
174.407,-0.392333984375
174.417,-0.337646484375
174.427,-0.237548828125
174.437,-0.11572265625
174.447,-0.0132064819335938
174.457,0.044586181640625
174.467,0.054443359375
174.471,-0.046142578125
174.481,-0.034698486328125
174.491,-0.020416259765625
174.501,-0.0191192626953125
174.511,-0.059967041015625
174.521,-0.1605224609375
174.531,-0.301513671875
174.541,-0.434814453125
174.551,-0.5205078125
174.561,-0.54345703125
174.571,-0.49755859375
174.581,-0.381591796875
174.591,-0.2169189453125
174.601,-0.03900146484375
174.611,0.11956787109375
174.621,0.2269287109375
174.629,0.258056640625
174.639,0.221435546875
174.649,0.14990234375
174.659,0.07177734375
174.669,0.00458908081054688
174.679,-0.039886474609375
174.689,-0.061981201171875
174.699,-0.07855224609375
174.709,-0.1092529296875
174.719,-0.1607666015625
174.729,-0.2291259765625
174.739,-0.303955078125
174.749,-0.36865234375
174.759,-0.412109375
174.769,-0.43603515625
174.779,-0.442626953125
174.789,-0.427734375
174.799,-0.390869140625
174.809,-0.34521484375
174.819,-0.320556640625
174.828,-0.3466796875
174.838,-0.4287109375
174.848,-0.54296875
174.858,-0.6591796875
174.868,-0.75244140625
174.878,-0.81494140625
174.888,-0.86083984375
174.898,-0.9228515625
174.908,-1.0234375
174.918,-1.1357421875
174.928,-1.1982421875
174.938,-1.1748046875
174.948,-1.1044921875
174.958,-1.0517578125
174.968,-1.044921875
174.978,-1.07421875
174.988,-1.1162109375
174.998,-1.1435546875
175.008,-1.1416015625
175.018,-1.1171875
175.027,-1.0810546875
175.037,-1.0478515625
175.047,-1.021484375
175.057,-1.0048828125
175.067,-0.99658203125
175.077,-0.994140625
175.087,-0.9990234375
175.097,-1.013671875
175.107,-1.0419921875
175.117,-1.080078125
175.127,-1.1201171875
175.137,-1.1435546875
175.147,-1.12890625
175.157,-1.0673828125
175.167,-0.96728515625
175.177,-0.85498046875
175.187,-0.7607421875
175.197,-0.70751953125
175.207,-0.70458984375
175.217,-0.75048828125
175.221,-1.1884765625
175.231,-1.142578125
175.241,-1.0517578125
175.251,-0.94482421875
175.261,-0.8447265625
175.271,-0.77099609375
175.281,-0.74267578125
175.291,-0.76611328125
175.301,-0.82958984375
175.311,-0.91015625
175.321,-0.98095703125
175.331,-1.021484375
175.341,-1.03125
175.351,-1.013671875
175.361,-0.97802734375
175.371,-0.93603515625
175.379,-0.89453125
175.389,-0.85986328125
175.399,-0.84228515625
175.409,-0.8486328125
175.419,-0.87939453125
175.429,-0.92529296875
175.439,-0.9716796875
175.449,-1.00390625
175.459,-1.0126953125
175.469,-1
175.479,-0.97412109375
175.489,-0.93408203125
175.499,-0.8857421875
175.509,-0.8447265625
175.519,-0.82080078125
175.529,-0.8203125
175.539,-0.84033203125
175.549,-0.86767578125
175.559,-0.888671875
175.569,-0.900390625
175.578,-0.89697265625
175.588,-0.87890625
175.598,-0.8515625
175.608,-0.81982421875
175.618,-0.78515625
175.628,-0.7548828125
175.638,-0.73779296875
175.648,-0.7392578125
175.658,-0.75927734375
175.668,-0.7900390625
175.678,-0.8203125
175.688,-0.83935546875
175.698,-0.83203125
175.708,-0.79345703125
175.718,-0.73828125
175.728,-0.685546875
175.738,-0.642578125
175.748,-0.6181640625
175.758,-0.6220703125
175.768,-0.65673828125
175.777,-0.7158203125
175.787,-0.78662109375
175.797,-0.85107421875
175.807,-0.89453125
175.817,-0.91259765625
175.827,-0.90234375
175.837,-0.8671875
175.847,-0.8212890625
175.857,-0.78173828125
175.867,-0.75537109375
175.877,-0.74658203125
175.887,-0.759765625
175.897,-0.79833984375
175.907,-0.85693359375
175.917,-0.92236328125
175.927,-0.9794921875
175.937,-1.013671875
175.947,-1.0146484375
175.957,-0.98193359375
175.967,-0.92822265625
175.971,-0.83935546875
175.981,-0.84130859375
175.991,-0.833984375
176.001,-0.81787109375
176.011,-0.7841796875
176.021,-0.72314453125
176.031,-0.640625
176.041,-0.556640625
176.051,-0.49072265625
176.061,-0.447265625
176.071,-0.420654296875
176.081,-0.40673828125
176.091,-0.41943359375
176.101,-0.48779296875
176.111,-0.61865234375
176.121,-0.77099609375
176.129,-0.87939453125
176.139,-0.904296875
176.149,-0.85546875
176.159,-0.7783203125
176.169,-0.7236328125
176.179,-0.71435546875
176.189,-0.73486328125
176.199,-0.75146484375
176.209,-0.73974609375
176.219,-0.69482421875
176.229,-0.6318359375
176.239,-0.5732421875
176.249,-0.53564453125
176.259,-0.51416015625
176.269,-0.48486328125
176.279,-0.42236328125
176.289,-0.31689453125
176.299,-0.1927490234375
176.309,-0.1058349609375
176.319,-0.11407470703125
176.328,-0.2425537109375
176.338,-0.4697265625
176.348,-0.73486328125
176.358,-0.95654296875
176.368,-1.0634765625
176.378,-1.0263671875
176.388,-0.8701171875
176.398,-0.64892578125
176.408,-0.426513671875
176.418,-0.2626953125
176.428,-0.207763671875
176.438,-0.2841796875
176.448,-0.468505859375
176.458,-0.6953125
176.468,-0.8828125
176.478,-0.955078125
176.488,-0.86962890625
176.498,-0.63671875
176.508,-0.309814453125
176.518,0.034698486328125
176.527,0.321533203125
176.537,0.49072265625
176.547,0.51123046875
176.557,0.3974609375
176.567,0.2115478515625
176.577,0.046905517578125
176.587,-0.0194244384765625
176.597,0.033355712890625
176.607,0.1639404296875
176.617,0.29345703125
176.627,0.34423828125
176.637,0.27392578125
176.647,0.09228515625
176.657,-0.1436767578125
176.667,-0.355224609375
176.677,-0.468017578125
176.687,-0.44091796875
176.697,-0.2958984375
176.707,-0.11749267578125
176.717,-0.00111675262451172
176.721,0.09515380859375
176.731,0.223388671875
176.741,0.27099609375
176.751,0.1746826171875
176.761,-0.053802490234375
176.771,-0.33251953125
176.781,-0.556640625
176.791,-0.6513671875
176.801,-0.599609375
176.811,-0.44775390625
176.821,-0.267333984375
176.831,-0.10577392578125
176.841,0.03192138671875
176.851,0.166015625
176.861,0.3095703125
176.871,0.44384765625
176.879,0.51806640625
176.889,0.476318359375
176.899,0.2978515625
176.909,0.0282135009765625
176.919,-0.2347412109375
176.929,-0.38818359375
176.939,-0.380859375
176.949,-0.25048828125
176.959,-0.1065673828125
176.969,-0.0511474609375
176.979,-0.10272216796875
176.989,-0.1917724609375
176.999,-0.2347412109375
177.009,-0.2052001953125
177.019,-0.136474609375
177.029,-0.07940673828125
177.039,-0.060455322265625
177.049,-0.06536865234375
177.059,-0.0657958984375
177.069,-0.059356689453125
177.078,-0.06097412109375
177.088,-0.06768798828125
177.098,-0.057861328125
177.108,-0.0204620361328125
177.118,0.0201873779296875
177.128,0.0124435424804688
177.138,-0.07843017578125
177.148,-0.235107421875
177.158,-0.39892578125
177.168,-0.513671875
177.178,-0.5537109375
177.188,-0.51416015625
177.198,-0.3984375
177.208,-0.2291259765625
177.218,-0.050750732421875
177.228,0.089599609375
177.238,0.1717529296875
177.248,0.208251953125
177.258,0.21923828125
177.268,0.2060546875
177.273,-0.09765625
177.283,-0.089599609375
177.293,-0.07574462890625
177.303,-0.05206298828125
177.313,-0.0127487182617188
177.323,0.0267181396484375
177.333,0.042816162109375
177.343,0.037017822265625
177.353,0.0308380126953125
177.363,0.026580810546875
177.373,0.00150966644287109
177.383,-0.05267333984375
177.393,-0.109619140625
177.403,-0.1405029296875
177.413,-0.1444091796875
177.423,-0.1324462890625
177.43,-0.103759765625
177.44,-0.05340576171875
177.45,0.0095062255859375
177.46,0.0673828125
177.47,0.11199951171875
177.48,0.138671875
177.49,0.1328125
177.5,0.0831298828125
177.51,0.00284767150878906
177.52,-0.08135986328125
177.53,-0.15478515625
177.54,-0.2093505859375
177.55,-0.225341796875
177.56,-0.1873779296875
177.57,-0.10748291015625
177.58,-0.01434326171875
177.59,0.0712890625
177.6,0.1383056640625
177.61,0.169677734375
177.62,0.1485595703125
177.629,0.08404541015625
177.639,0.00731277465820312
177.649,-0.05908203125
177.659,-0.10614013671875
177.669,-0.1256103515625
177.679,-0.110595703125
177.689,-0.05963134765625
177.699,0.025726318359375
177.709,0.1357421875
177.719,0.24169921875
177.729,0.308837890625
177.739,0.322998046875
177.749,0.2900390625
177.759,0.219482421875
177.769,0.1209716796875
177.779,0.0142440795898438
177.789,-0.07403564453125
177.799,-0.1268310546875
177.809,-0.1387939453125
177.819,-0.1085205078125
177.828,-0.043212890625
177.838,0.038330078125
177.848,0.1187744140625
177.858,0.187255859375
177.868,0.23046875
177.878,0.237060546875
177.888,0.2103271484375
177.898,0.1619873046875
177.908,0.1041259765625
177.918,0.04913330078125
177.928,0.00847625732421875
177.938,-0.011871337890625
177.948,-0.00669097900390625
177.958,0.024017333984375
177.968,0.0667724609375
177.978,0.10491943359375
177.988,0.1259765625
177.998,0.1209716796875
178.008,0.09173583984375
178.018,0.0516357421875
178.023,-0.042236328125
178.033,-0.01129150390625
178.043,0.031005859375
178.053,0.07110595703125
178.063,0.094482421875
178.073,0.09307861328125
178.083,0.0670166015625
178.093,0.0185699462890625
178.103,-0.044036865234375
178.113,-0.10711669921875
178.123,-0.162109375
178.133,-0.2039794921875
178.143,-0.2236328125
178.153,-0.2109375
178.163,-0.1644287109375
178.173,-0.09844970703125
178.18,-0.03192138671875
178.19,0.026397705078125
178.2,0.0765380859375
178.21,0.1160888671875
178.22,0.138671875
178.23,0.140625
178.24,0.1219482421875
178.25,0.0845947265625
178.26,0.036956787109375
178.27,-0.0136566162109375
178.28,-0.06341552734375
178.29,-0.10357666015625
178.3,-0.1217041015625
178.31,-0.11224365234375
178.32,-0.0794677734375
178.33,-0.032440185546875
178.34,0.0168914794921875
178.35,0.055938720703125
178.36,0.076171875
178.37,0.0755615234375
178.379,0.056793212890625
178.389,0.024932861328125
178.399,-0.0153121948242188
178.409,-0.0594482421875
178.419,-0.09857177734375
178.429,-0.11932373046875
178.439,-0.1123046875
178.449,-0.0789794921875
178.459,-0.032135009765625
178.469,0.01214599609375
178.479,0.038787841796875
178.489,0.03814697265625
178.499,0.0131607055664062
178.509,-0.0224456787109375
178.519,-0.0523681640625
178.529,-0.06475830078125
178.539,-0.05828857421875
178.549,-0.04217529296875
178.559,-0.028045654296875
178.569,-0.0196990966796875
178.578,-0.0100860595703125
178.588,0.0100555419921875
178.598,0.040740966796875
178.608,0.07098388671875
178.618,0.08673095703125
178.628,0.07855224609375
178.638,0.045440673828125
178.648,-0.00452041625976562
178.658,-0.05828857421875
178.668,-0.1058349609375
178.678,-0.1424560546875
178.688,-0.166015625
178.698,-0.177490234375
178.708,-0.1812744140625
178.718,-0.1788330078125
178.728,-0.16796875
178.738,-0.1556396484375
178.748,-0.157470703125
178.758,-0.1790771484375
178.768,-0.21142578125
178.773,-0.2100830078125
178.783,-0.1732177734375
178.793,-0.1343994140625
178.803,-0.0947265625
178.813,-0.06121826171875
178.823,-0.044403076171875
178.833,-0.045928955078125
178.843,-0.055450439453125
178.853,-0.060089111328125
178.863,-0.052337646484375
178.873,-0.028961181640625
178.883,0.0099945068359375
178.893,0.057159423828125
178.903,0.1015625
178.913,0.1378173828125
178.923,0.1640625
178.93,0.17626953125
178.94,0.1737060546875
178.95,0.16162109375
178.96,0.140869140625
178.97,0.107421875
178.98,0.0635986328125
178.99,0.0224151611328125
179,-0.00287437438964844
179.01,-0.00648880004882812
179.02,0.01153564453125
179.03,0.047332763671875
179.04,0.08843994140625
179.05,0.114990234375
179.06,0.1134033203125
179.07,0.08673095703125
179.08,0.045257568359375
179.09,-0.00574874877929688
179.1,-0.061614990234375
179.11,-0.11968994140625
179.12,-0.18408203125
179.129,-0.252685546875
179.139,-0.312255859375
179.149,-0.3486328125
179.159,-0.350830078125
179.169,-0.31005859375
179.179,-0.2269287109375
179.189,-0.121337890625
179.199,-0.0220947265625
179.209,0.053924560546875
179.219,0.1009521484375
179.229,0.11517333984375
179.239,0.0987548828125
179.249,0.06109619140625
179.259,0.01324462890625
179.269,-0.036956787109375
179.279,-0.0816650390625
179.289,-0.11151123046875
179.299,-0.1251220703125
179.309,-0.13037109375
179.319,-0.1275634765625
179.328,-0.11322021484375
179.338,-0.09136962890625
179.348,-0.06658935546875
179.358,-0.038848876953125
179.368,-0.0131607055664062
179.378,0.00219345092773438
179.388,0.005889892578125
179.398,0.00351524353027344
179.408,-0.00103569030761719
179.418,-0.00893402099609375
179.428,-0.0217742919921875
179.438,-0.04095458984375
179.448,-0.07098388671875
179.458,-0.11328125
179.468,-0.158935546875
179.478,-0.1947021484375
179.488,-0.21337890625
179.498,-0.21240234375
179.508,-0.1929931640625
179.518,-0.1634521484375
179.522,-0.042083740234375
179.532,-0.035675048828125
179.542,-0.036651611328125
179.552,-0.050140380859375
179.562,-0.07257080078125
179.572,-0.0931396484375
179.582,-0.10595703125
179.592,-0.11358642578125
179.602,-0.1187744140625
179.612,-0.11810302734375
179.622,-0.109619140625
179.632,-0.102294921875
179.642,-0.1060791015625
179.652,-0.1170654296875
179.662,-0.125244140625
179.672,-0.1318359375
179.68,-0.1451416015625
179.69,-0.162841796875
179.7,-0.1729736328125
179.71,-0.1680908203125
179.72,-0.14599609375
179.73,-0.1031494140625
179.74,-0.039215087890625
179.75,0.0350341796875
179.76,0.1038818359375
179.77,0.1551513671875
179.78,0.181396484375
179.79,0.1788330078125
179.8,0.143310546875
179.81,0.07244873046875
179.82,-0.026275634765625
179.83,-0.13330078125
179.84,-0.2237548828125
179.85,-0.279052734375
179.86,-0.299072265625
179.87,-0.303955078125
179.879,-0.318603515625
179.889,-0.350830078125
179.899,-0.388427734375
179.909,-0.41015625
179.919,-0.398681640625
179.929,-0.34814453125
179.939,-0.2646484375
179.949,-0.153564453125
179.959,-0.0175628662109375
179.969,0.126220703125
179.979,0.2418212890625
179.989,0.2939453125
179.999,0.272216796875
180.009,0.1944580078125
180.019,0.08984375
180.029,-0.019683837890625
180.039,-0.1253662109375
180.049,-0.2227783203125
180.059,-0.299560546875
180.069,-0.340576171875
180.078,-0.340087890625
180.088,-0.304931640625
180.098,-0.249755859375
180.108,-0.18505859375
180.118,-0.118408203125
180.128,-0.06298828125
180.138,-0.03717041015625
180.148,-0.056671142578125
180.158,-0.1219482421875
180.168,-0.204345703125
180.178,-0.262451171875
180.188,-0.2734375
180.198,-0.2314453125
180.208,-0.14501953125
180.218,-0.052001953125
180.228,-0.00285911560058594
180.238,-0.0284881591796875
180.248,-0.1295166015625
180.258,-0.276611328125
180.268,-0.419189453125
180.273,-0.195068359375
180.283,-0.11541748046875
180.293,-0.08343505859375
180.303,-0.09271240234375
180.313,-0.130126953125
180.323,-0.18212890625
180.333,-0.233642578125
180.343,-0.273193359375
180.353,-0.29931640625
180.363,-0.31640625
180.373,-0.323974609375
180.383,-0.313232421875
180.393,-0.27685546875
180.403,-0.2176513671875
180.413,-0.1500244140625
180.423,-0.08636474609375
180.43,-0.03057861328125
180.44,0.0142364501953125
180.45,0.036773681640625
180.46,0.0223236083984375
180.47,-0.033416748046875
180.48,-0.119384765625
180.49,-0.21826171875
180.5,-0.313720703125
180.51,-0.387939453125
180.52,-0.4208984375
180.53,-0.40087890625
180.54,-0.329345703125
180.55,-0.222412109375
180.56,-0.108154296875
180.57,-0.0182037353515625
180.58,0.0265350341796875
180.59,0.021728515625
180.6,-0.0223236083984375
180.61,-0.0850830078125
180.62,-0.14208984375
180.629,-0.173095703125
180.639,-0.1688232421875
180.649,-0.130615234375
180.659,-0.067138671875
180.669,0.00785064697265625
180.679,0.0780029296875
180.689,0.1302490234375
180.699,0.1522216796875
180.709,0.1318359375
180.719,0.07318115234375
180.729,0.00173091888427734
180.739,-0.05279541015625
180.749,-0.07379150390625
180.759,-0.061065673828125
180.769,-0.0252838134765625
180.779,0.0199432373046875
180.789,0.06671142578125
180.799,0.11273193359375
180.809,0.1507568359375
180.819,0.1661376953125
180.828,0.1470947265625
180.838,0.09136962890625
180.848,0.006866455078125
180.858,-0.09039306640625
180.868,-0.182861328125
180.878,-0.25732421875
180.888,-0.306884765625
180.898,-0.330810546875
180.908,-0.340576171875
180.918,-0.36669921875
180.928,-0.435546875
180.938,-0.544921875
180.948,-0.66748046875
180.958,-0.767578125
180.968,-0.8134765625
180.978,-0.7939453125
180.988,-0.72265625
180.998,-0.62255859375
181.008,-0.5205078125
181.018,-0.461669921875
181.023,-0.9755859375
181.033,-0.9130859375
181.043,-0.73095703125
181.053,-0.43798828125
181.063,-0.06549072265625
181.073,0.30908203125
181.083,0.5771484375
181.093,0.67041015625
181.103,0.59521484375
181.113,0.396728515625
181.123,0.09954833984375
181.133,-0.281982421875
181.143,-0.7099609375
181.153,-1.123046875
181.163,-1.4404296875
181.173,-1.58203125
181.18,-1.5263671875
181.19,-1.31640625
181.2,-1.001953125
181.21,-0.63134765625
181.22,-0.2479248046875
181.23,0.119384765625
181.24,0.44970703125
181.25,0.72998046875
181.26,0.9619140625
181.27,1.1396484375
181.28,1.2294921875
181.29,1.1904296875
181.3,1.0126953125
181.31,0.71728515625
181.32,0.363037109375
181.33,0.035736083984375
181.34,-0.2047119140625
181.35,-0.36669921875
181.36,-0.50439453125
181.37,-0.6689453125
181.379,-0.87744140625
181.389,-1.095703125
181.399,-1.24609375
181.409,-1.2490234375
181.419,-1.0595703125
181.429,-0.6943359375
181.439,-0.2353515625
181.449,0.169921875
181.459,0.376220703125
181.469,0.331298828125
181.479,0.08770751953125
181.489,-0.2489013671875
181.499,-0.5703125
181.509,-0.8037109375
181.519,-0.92578125
181.529,-0.95947265625
181.539,-0.93408203125
181.549,-0.84912109375
181.559,-0.693359375
181.569,-0.488037109375
181.577,-0.301513671875
181.587,-0.2039794921875
181.597,-0.2232666015625
181.607,-0.344970703125
181.617,-0.525390625
181.627,-0.6953125
181.637,-0.78466796875
181.647,-0.76318359375
181.657,-0.63916015625
181.667,-0.44921875
181.677,-0.25146484375
181.687,-0.10455322265625
181.697,-0.04791259765625
181.707,-0.1038818359375
181.717,-0.26513671875
181.727,-0.48193359375
181.737,-0.6826171875
181.747,-0.81494140625
181.757,-0.8681640625
181.767,-0.85986328125
181.771,-0.49951171875
181.781,-0.52783203125
181.791,-0.6337890625
181.801,-0.810546875
181.811,-1.013671875
181.821,-1.1875
181.831,-1.291015625
181.841,-1.3076171875
181.851,-1.2421875
181.861,-1.1259765625
181.871,-0.994140625
181.881,-0.8662109375
181.891,-0.7587890625
181.901,-0.69580078125
181.911,-0.69384765625
181.921,-0.74267578125
181.93,-0.82275390625
181.94,-0.91845703125
181.95,-1.009765625
181.96,-1.0673828125
181.97,-1.0771484375
181.98,-1.0380859375
181.99,-0.95458984375
182,-0.8369140625
182.01,-0.7177734375
182.02,-0.6328125
182.03,-0.60302734375
182.04,-0.63134765625
182.05,-0.70849609375
182.06,-0.8076171875
182.07,-0.89208984375
182.08,-0.93701171875
182.09,-0.93505859375
182.1,-0.8916015625
182.11,-0.82666015625
182.12,-0.7685546875
182.129,-0.73486328125
182.139,-0.7294921875
182.149,-0.75048828125
182.159,-0.78662109375
182.169,-0.82470703125
182.179,-0.857421875
182.189,-0.88232421875
182.199,-0.90087890625
182.209,-0.91552734375
182.219,-0.923828125
182.229,-0.9140625
182.239,-0.87939453125
182.249,-0.8251953125
182.259,-0.76806640625
182.269,-0.72216796875
182.279,-0.697265625
182.289,-0.6943359375
182.299,-0.7080078125
182.309,-0.73388671875
182.319,-0.77001953125
182.327,-0.810546875
182.337,-0.845703125
182.347,-0.8662109375
182.357,-0.8701171875
182.367,-0.8603515625
182.377,-0.837890625
182.387,-0.80419921875
182.397,-0.7705078125
182.407,-0.7509765625
182.417,-0.75390625
182.427,-0.77880859375
182.437,-0.81640625
182.447,-0.8525390625
182.457,-0.87548828125
182.467,-0.87890625
182.477,-0.86328125
182.487,-0.83203125
182.497,-0.7958984375
182.507,-0.76806640625
182.517,-0.75537109375
182.521,-0.72314453125
182.531,-0.677734375
182.541,-0.63232421875
182.551,-0.59228515625
182.561,-0.5654296875
182.571,-0.5625
182.581,-0.591796875
182.591,-0.64697265625
182.601,-0.71240234375
182.611,-0.7685546875
182.621,-0.79736328125
182.631,-0.79052734375
182.641,-0.74951171875
182.651,-0.6865234375
182.661,-0.62158203125
182.671,-0.57275390625
182.68,-0.55224609375
182.69,-0.55908203125
182.7,-0.57568359375
182.71,-0.5791015625
182.72,-0.5595703125
182.73,-0.52392578125
182.74,-0.48046875
182.75,-0.43408203125
182.76,-0.394775390625
182.77,-0.374267578125
182.78,-0.37451171875
182.79,-0.37939453125
