Time,AccelerometerX
439.531,-0.74951171875
439.541,-0.64404296875
439.551,-0.4912109375
439.561,-0.325439453125
439.571,-0.150634765625
439.606,0.0141754150390625
439.616,0.11016845703125
439.626,0.074462890625
439.636,-0.09722900390625
439.646,-0.32470703125
439.656,-0.493408203125
439.666,-0.537109375
439.676,-0.4736328125
439.686,-0.369873046875
439.696,-0.27783203125
439.706,-0.2103271484375
439.716,-0.1629638671875
439.726,-0.1373291015625
439.736,-0.145263671875
439.746,-0.197265625
439.756,-0.289794921875
439.766,-0.416748046875
439.776,-0.56640625
439.786,-0.71826171875
439.796,-0.845703125
439.799,-0.419921875
439.809,-0.24755859375
439.819,-0.1180419921875
439.829,-0.035308837890625
439.839,0.0134963989257812
439.849,0.038330078125
439.859,0.043975830078125
439.869,0.036102294921875
439.879,0.0107192993164062
439.889,-0.0310821533203125
439.899,-0.06976318359375
439.909,-0.10308837890625
439.919,-0.14697265625
439.929,-0.2047119140625
439.939,-0.271484375
439.949,-0.34716796875
439.958,-0.4443359375
439.968,-0.5888671875
439.978,-0.7958984375
439.988,-1.0341796875
439.998,-1.2216796875
440.008,-1.259765625
440.018,-1.1015625
440.028,-0.7900390625
440.038,-0.457275390625
440.048,-0.2408447265625
440.058,-0.195556640625
440.068,-0.28466796875
440.078,-0.427001953125
440.088,-0.54345703125
440.098,-0.591796875
440.108,-0.57861328125
440.118,-0.53564453125
440.128,-0.5029296875
440.138,-0.517578125
440.148,-0.59228515625
440.157,-0.712890625
440.167,-0.86181640625
440.177,-1.0263671875
440.187,-1.177734375
440.197,-1.2783203125
440.207,-1.3193359375
440.217,-1.314453125
440.227,-1.2685546875
440.237,-1.1826171875
440.247,-1.05859375
440.257,-0.92041015625
440.267,-0.81005859375
440.277,-0.74267578125
440.287,-0.70458984375
440.297,-0.677734375
440.307,-0.650390625
440.317,-0.62158203125
440.327,-0.6044921875
440.337,-0.6181640625
440.347,-0.6650390625
440.352,-0.56640625
440.362,-0.393798828125
440.372,-0.2607421875
440.382,-0.2183837890625
440.392,-0.2724609375
440.402,-0.39404296875
440.412,-0.5419921875
440.422,-0.6806640625
440.432,-0.77880859375
440.442,-0.814453125
440.452,-0.78857421875
440.462,-0.71728515625
440.472,-0.61669921875
440.482,-0.4970703125
440.492,-0.365234375
440.502,-0.2509765625
440.509,-0.2025146484375
440.519,-0.25048828125
440.529,-0.389892578125
440.539,-0.5751953125
440.549,-0.748046875
440.559,-0.88330078125
440.569,-0.9775390625
440.579,-1.013671875
440.589,-0.97119140625
440.599,-0.85009765625
440.609,-0.6767578125
440.619,-0.49267578125
440.629,-0.34423828125
440.639,-0.27197265625
440.649,-0.284423828125
440.659,-0.357666015625
440.669,-0.467041015625
440.679,-0.60302734375
440.689,-0.74755859375
440.699,-0.86083984375
440.708,-0.90234375
440.718,-0.86181640625
440.728,-0.765625
440.738,-0.66796875
440.748,-0.61572265625
440.758,-0.619140625
440.768,-0.6572265625
440.778,-0.7021484375
440.788,-0.7578125
440.798,-0.85498046875
440.808,-0.98828125
440.818,-1.091796875
440.828,-1.095703125
440.838,-0.9814453125
440.848,-0.7998046875
440.858,-0.634765625
440.868,-0.54248046875
440.878,-0.52197265625
440.888,-0.54345703125
440.898,-0.60546875
440.907,-0.7451171875
440.917,-0.97314453125
440.927,-1.2275390625
440.937,-1.396484375
440.947,-1.3857421875
440.957,-1.2001953125
440.967,-0.93505859375
440.977,-0.69091796875
440.987,-0.5185546875
440.997,-0.416748046875
441.007,-0.363037109375
441.017,-0.344970703125
441.027,-0.35986328125
441.037,-0.39306640625
441.047,-0.42236328125
441.057,-0.434326171875
441.067,-0.435302734375
441.077,-0.451171875
441.087,-0.51025390625
441.097,-0.6083984375
441.102,-0.822265625
441.112,-0.7578125
441.122,-0.62939453125
441.132,-0.48974609375
441.142,-0.4140625
441.152,-0.434326171875
441.162,-0.50537109375
441.172,-0.52880859375
441.182,-0.438720703125
441.192,-0.2607421875
441.202,-0.0775146484375
441.212,0.042205810546875
441.222,0.0780029296875
441.232,0.043670654296875
441.242,-0.056732177734375
441.252,-0.2401123046875
441.259,-0.501953125
441.269,-0.78125
441.279,-0.96923828125
441.289,-0.9794921875
441.299,-0.82177734375
441.309,-0.59423828125
441.319,-0.40625
441.329,-0.30615234375
441.339,-0.264404296875
441.349,-0.2320556640625
441.359,-0.196044921875
441.369,-0.17724609375
441.379,-0.191162109375
441.389,-0.22607421875
441.399,-0.2607421875
441.409,-0.293212890625
441.419,-0.3359375
441.429,-0.397216796875
441.439,-0.467529296875
441.449,-0.51708984375
441.458,-0.5166015625
441.468,-0.466796875
441.478,-0.4052734375
441.488,-0.390380859375
441.498,-0.459228515625
441.508,-0.59814453125
441.518,-0.755859375
441.528,-0.8857421875
441.538,-0.97216796875
441.548,-1.0107421875
441.558,-0.9853515625
441.568,-0.87841796875
441.578,-0.69384765625
441.588,-0.468994140625
441.598,-0.264404296875
441.608,-0.1304931640625
441.618,-0.08551025390625
441.628,-0.120849609375
441.638,-0.2027587890625
441.648,-0.285400390625
441.657,-0.3525390625
441.667,-0.429931640625
441.677,-0.5458984375
441.687,-0.68603515625
441.697,-0.798828125
441.707,-0.8515625
441.717,-0.8525390625
441.727,-0.82470703125
441.737,-0.77099609375
441.747,-0.67431640625
441.757,-0.53173828125
441.767,-0.383056640625
441.777,-0.2861328125
441.787,-0.261474609375
441.797,-0.28076171875
441.807,-0.2998046875
441.817,-0.299072265625
441.827,-0.298095703125
441.837,-0.3388671875
441.847,-0.4501953125
441.851,-0.7119140625
441.861,-0.626953125
441.871,-0.533203125
441.881,-0.429443359375
441.891,-0.3251953125
441.901,-0.2454833984375
441.911,-0.2119140625
441.921,-0.2264404296875
441.931,-0.267333984375
441.941,-0.3046875
441.951,-0.321044921875
441.961,-0.31689453125
441.971,-0.308349609375
441.981,-0.3212890625
441.991,-0.369384765625
442.001,-0.45166015625
442.009,-0.5673828125
442.019,-0.7119140625
442.029,-0.8544921875
442.039,-0.93505859375
442.049,-0.89599609375
442.059,-0.72607421875
442.069,-0.479248046875
442.079,-0.252685546875
442.089,-0.1282958984375
442.099,-0.135009765625
442.109,-0.25244140625
442.119,-0.42333984375
442.129,-0.57861328125
442.139,-0.67236328125
442.149,-0.69775390625
442.159,-0.6826171875
442.169,-0.66455078125
442.179,-0.65576171875
442.189,-0.64501953125
442.199,-0.62939453125
442.208,-0.6337890625
442.218,-0.6982421875
442.228,-0.83740234375
442.238,-1.01171875
442.248,-1.1376953125
442.258,-1.12890625
442.268,-0.9599609375
442.278,-0.6796875
442.288,-0.3740234375
442.298,-0.12152099609375
442.308,0.0221099853515625
442.318,0.039794921875
442.328,-0.0416259765625
442.338,-0.1619873046875
442.348,-0.260986328125
442.358,-0.323974609375
442.368,-0.396240234375
442.378,-0.53369140625
442.388,-0.73828125
442.398,-0.9462890625
442.407,-1.09765625
442.417,-1.181640625
442.427,-1.205078125
442.437,-1.15625
442.447,-1.009765625
442.457,-0.75146484375
442.467,-0.41357421875
442.477,-0.08026123046875
442.487,0.156982421875
442.497,0.242919921875
442.507,0.177978515625
442.517,0.00399398803710938
442.527,-0.239501953125
442.537,-0.54248046875
442.547,-0.88916015625
442.557,-1.2119140625
442.567,-1.41796875
442.577,-1.4443359375
442.587,-1.2900390625
442.597,-1.0107421875
442.601,0.302001953125
442.611,0.4169921875
442.621,0.41357421875
442.631,0.29296875
442.641,0.08880615234375
442.651,-0.154052734375
442.661,-0.361572265625
442.671,-0.44580078125
442.681,-0.3818359375
442.691,-0.241455078125
442.701,-0.1368408203125
442.711,-0.1363525390625
442.721,-0.2213134765625
442.731,-0.3115234375
442.741,-0.33349609375
442.751,-0.2734375
442.759,-0.1788330078125
442.769,-0.125
442.779,-0.177001953125
442.789,-0.356689453125
442.799,-0.619140625
442.809,-0.86328125
442.819,-0.97802734375
442.829,-0.90087890625
442.839,-0.646484375
442.849,-0.2958984375
442.859,0.03948974609375
442.869,0.261962890625
442.879,0.3310546875
442.889,0.273193359375
442.899,0.141357421875
442.909,-0.042083740234375
442.919,-0.295166015625
442.929,-0.63134765625
442.939,-1.015625
442.949,-1.3642578125
442.958,-1.5625
442.968,-1.5263671875
442.978,-1.2392578125
442.988,-0.77783203125
442.998,-0.287109375
443.008,0.06390380859375
443.018,0.1614990234375
443.028,0.00529098510742188
443.038,-0.2939453125
443.048,-0.56884765625
443.058,-0.6826171875
443.068,-0.59619140625
443.078,-0.35986328125
443.088,-0.07489013671875
443.098,0.142822265625
443.108,0.21875
443.118,0.15966796875
443.128,0.025665283203125
443.138,-0.13671875
443.148,-0.320068359375
443.157,-0.52392578125
443.167,-0.72021484375
443.177,-0.8525390625
443.187,-0.87744140625
443.197,-0.80029296875
443.207,-0.666015625
443.217,-0.54296875
443.227,-0.4853515625
443.237,-0.488525390625
443.247,-0.50341796875
443.257,-0.493896484375
443.267,-0.479248046875
443.277,-0.5185546875
443.287,-0.6318359375
443.297,-0.78173828125
443.307,-0.9169921875
443.317,-0.9833984375
443.327,-0.9326171875
443.337,-0.7548828125
443.347,-0.498046875
443.351,-0.7939453125
443.361,-1.033203125
443.371,-1.1376953125
443.381,-1.0732421875
443.391,-0.87939453125
443.401,-0.64306640625
443.411,-0.462646484375
443.421,-0.40283203125
443.431,-0.458251953125
443.441,-0.5595703125
443.451,-0.6181640625
443.461,-0.58056640625
443.471,-0.45166015625
443.481,-0.28173828125
443.491,-0.1602783203125
443.501,-0.1776123046875
443.509,-0.354248046875
443.519,-0.6103515625
443.529,-0.81640625
443.539,-0.86279296875
443.549,-0.7041015625
443.559,-0.3740234375
443.569,0.035003662109375
443.579,0.409912109375
443.589,0.65087890625
443.599,0.69287109375
443.609,0.53564453125
443.619,0.255615234375
443.629,-0.0257110595703125
443.639,-0.2138671875
443.649,-0.290771484375
443.659,-0.317626953125
443.669,-0.3779296875
443.679,-0.49462890625
443.689,-0.60986328125
443.699,-0.64208984375
443.708,-0.54931640625
443.718,-0.345458984375
443.728,-0.087646484375
443.738,0.1429443359375
443.748,0.26611328125
443.758,0.234375
443.768,0.060546875
443.778,-0.1798095703125
443.788,-0.385009765625
443.798,-0.489990234375
443.808,-0.501953125
443.818,-0.470703125
443.828,-0.4345703125
443.838,-0.410888671875
443.848,-0.40673828125
443.858,-0.418701171875
443.868,-0.427001953125
443.878,-0.40283203125
443.888,-0.334716796875
443.898,-0.246337890625
443.906,-0.1844482421875
443.916,-0.18408203125
443.926,-0.238525390625
443.936,-0.318115234375
443.946,-0.420654296875
443.956,-0.57666015625
443.966,-0.79541015625
443.976,-1.0224609375
443.986,-1.1591796875
443.996,-1.1279296875
444.006,-0.94287109375
444.016,-0.6943359375
444.026,-0.486328125
444.036,-0.388671875
444.046,-0.419189453125
444.056,-0.5380859375
444.066,-0.65673828125
444.076,-0.68359375
444.086,-0.58251953125
444.096,-0.379638671875
444.1,0.378662109375
444.11,0.28564453125
444.12,0.0831298828125
444.13,-0.21630859375
444.14,-0.5322265625
444.15,-0.7646484375
444.16,-0.861328125
444.17,-0.8291015625
444.18,-0.70849609375
444.19,-0.546875
444.2,-0.381103515625
444.21,-0.2408447265625
444.22,-0.1571044921875
444.23,-0.16064453125
444.24,-0.264892578125
444.25,-0.439453125
444.259,-0.61083984375
444.269,-0.69189453125
444.279,-0.63818359375
444.289,-0.49072265625
444.299,-0.339111328125
444.309,-0.2403564453125
444.319,-0.18994140625
444.329,-0.1546630859375
444.339,-0.1221923828125
444.349,-0.11358642578125
444.359,-0.1588134765625
444.369,-0.2744140625
444.379,-0.45068359375
444.389,-0.6552734375
444.399,-0.8466796875
444.409,-0.98291015625
444.419,-1.025390625
444.429,-0.94580078125
444.439,-0.75
444.449,-0.50390625
444.458,-0.2919921875
444.468,-0.16748046875
444.478,-0.147705078125
444.488,-0.2213134765625
444.498,-0.360595703125
444.508,-0.53857421875
444.518,-0.71533203125
444.528,-0.84619140625
444.538,-0.9072265625
444.548,-0.88330078125
444.558,-0.77099609375
444.568,-0.60205078125
444.578,-0.443603515625
444.588,-0.365966796875
444.598,-0.394287109375
444.608,-0.49462890625
444.618,-0.6044921875
444.628,-0.65966796875
444.638,-0.62451171875
444.648,-0.5205078125
444.656,-0.3896484375
444.666,-0.2474365234375
444.676,-0.083740234375
444.686,0.08697509765625
444.696,0.2054443359375
444.706,0.2208251953125
444.716,0.1298828125
444.726,-0.036773681640625
444.736,-0.25244140625
444.746,-0.52001953125
444.756,-0.822265625
444.766,-1.0693359375
444.776,-1.16015625
444.786,-1.0703125
444.796,-0.8623046875
444.806,-0.61767578125
444.816,-0.39453125
444.826,-0.224365234375
444.836,-0.11541748046875
444.846,-0.07501220703125
444.85,-0.91259765625
444.86,-0.89404296875
444.87,-0.783203125
444.88,-0.6484375
444.89,-0.54052734375
444.9,-0.47314453125
444.91,-0.4189453125
444.92,-0.352294921875
444.93,-0.291748046875
444.94,-0.274169921875
444.95,-0.29541015625
444.96,-0.3134765625
444.97,-0.3037109375
444.98,-0.281982421875
444.99,-0.27490234375
445,-0.28662109375
445.009,-0.298095703125
445.019,-0.293212890625
445.029,-0.274658203125
445.039,-0.275634765625
445.049,-0.35107421875
445.059,-0.5302734375
445.069,-0.771484375
445.079,-0.97705078125
445.089,-1.0654296875
445.099,-1.0380859375
445.109,-0.94921875
445.119,-0.8369140625
445.129,-0.6904296875
445.139,-0.4990234375
445.149,-0.302490234375
445.159,-0.1737060546875
445.169,-0.1552734375
445.179,-0.2257080078125
445.189,-0.306884765625
445.199,-0.32373046875
445.208,-0.2626953125
445.218,-0.164306640625
445.228,-0.0826416015625
445.238,-0.048370361328125
445.248,-0.043914794921875
445.258,-0.037841796875
445.268,-0.04388427734375
445.278,-0.12139892578125
445.288,-0.310302734375
445.298,-0.564453125
445.308,-0.765625
445.318,-0.8193359375
445.328,-0.7255859375
445.338,-0.54736328125
445.348,-0.34375
445.358,-0.1590576171875
445.368,-0.035308837890625
445.378,-0.00216865539550781
445.388,-0.06658935546875
445.398,-0.2044677734375
445.406,-0.3583984375
445.416,-0.472900390625
445.426,-0.53125
445.436,-0.56201171875
445.446,-0.607421875
445.456,-0.6787109375
445.466,-0.74169921875
445.476,-0.75439453125
445.486,-0.70361328125
445.496,-0.62158203125
445.506,-0.5732421875
445.516,-0.59912109375
445.526,-0.6806640625
445.536,-0.75634765625
445.546,-0.76708984375
445.556,-0.6962890625
445.566,-0.58447265625
445.576,-0.48291015625
445.586,-0.405029296875
445.596,-0.342041015625
445.6,-0.31005859375
445.61,-0.2381591796875
445.62,-0.15966796875
445.63,-0.1531982421875
445.64,-0.264892578125
445.65,-0.466064453125
445.66,-0.6630859375
445.67,-0.76708984375
445.68,-0.7626953125
445.69,-0.69775390625
445.7,-0.619140625
445.71,-0.53125
445.72,-0.416015625
445.73,-0.28466796875
445.74,-0.1844482421875
445.75,-0.1611328125
445.759,-0.2197265625
445.769,-0.310791015625
445.779,-0.381591796875
445.789,-0.43505859375
445.799,-0.50927734375
445.809,-0.623046875
445.819,-0.74560546875
445.829,-0.81689453125
445.839,-0.802734375
445.849,-0.734375
445.859,-0.68408203125
445.869,-0.705078125
445.879,-0.7841796875
445.889,-0.86328125
445.899,-0.89453125
445.909,-0.8798828125
445.919,-0.8515625
445.929,-0.8232421875
445.939,-0.76953125
445.949,-0.66162109375
445.958,-0.513671875
445.968,-0.376708984375
445.978,-0.294921875
445.988,-0.275390625
445.998,-0.297607421875
446.008,-0.347900390625
446.018,-0.4306640625
446.028,-0.56005859375
446.038,-0.7353515625
446.048,-0.92578125
446.058,-1.07421875
446.068,-1.134765625
446.078,-1.1044921875
446.088,-1.0166015625
446.098,-0.89697265625
446.108,-0.755859375
446.118,-0.591796875
446.128,-0.41015625
446.138,-0.249267578125
446.148,-0.1708984375
446.156,-0.224853515625
446.166,-0.431396484375
446.176,-0.7763671875
446.186,-1.2080078125
446.196,-1.6552734375
446.206,-2.044921875
446.216,-2.322265625
446.226,-2.45703125
446.236,-2.458984375
446.246,-2.357421875
446.256,-2.19921875
446.266,-2.017578125
446.276,-1.8212890625
446.286,-1.607421875
446.296,-1.3828125
446.306,-1.169921875
446.316,-1.0048828125
446.326,-0.91943359375
446.336,-0.91162109375
446.346,-0.94775390625
446.35,-0.966796875
446.36,-0.9619140625
446.37,-0.94580078125
446.38,-0.9365234375
446.39,-0.95703125
446.4,-1.0029296875
446.41,-1.05078125
446.42,-1.0810546875
446.43,-1.0927734375
446.44,-1.0908203125
446.45,-1.078125
446.46,-1.0546875
446.47,-1.02734375
446.48,-1.0126953125
446.49,-1.0263671875
446.5,-1.0751953125
446.509,-1.1416015625
446.519,-1.1962890625
446.529,-1.216796875
446.539,-1.2080078125
446.549,-1.1884765625
446.559,-1.1640625
446.569,-1.126953125
446.579,-1.076171875
446.589,-1.0341796875
446.599,-1.015625
446.609,-1.015625
446.619,-1.0224609375
446.629,-1.0302734375
446.639,-1.0400390625
446.649,-1.0458984375
446.659,-1.0380859375
446.669,-1.015625
446.679,-0.97998046875
446.689,-0.93212890625
446.699,-0.87890625
446.708,-0.8310546875
446.718,-0.791015625
446.728,-0.75537109375
446.738,-0.7255859375
446.748,-0.70263671875
446.758,-0.67822265625
446.768,-0.64794921875
446.778,-0.62060546875
446.788,-0.6123046875
446.798,-0.6357421875
446.808,-0.6982421875
446.818,-0.79736328125
446.828,-0.916015625
446.838,-1.025390625
446.848,-1.103515625
446.858,-1.1279296875
446.868,-1.0908203125
446.878,-1.001953125
446.888,-0.88427734375
446.898,-0.755859375
446.906,-0.62744140625
446.916,-0.51220703125
446.926,-0.427001953125
446.936,-0.395263671875
446.946,-0.437744140625
446.956,-0.55322265625
446.966,-0.7060546875
446.976,-0.8505859375
446.986,-0.95361328125
446.996,-1.0009765625
447.006,-0.99462890625
447.016,-0.94775390625
447.026,-0.873046875
447.036,-0.78662109375
447.046,-0.7060546875
447.056,-0.6455078125
447.066,-0.60888671875
447.076,-0.599609375
447.086,-0.62548828125
447.096,-0.68603515625
447.1,-0.88818359375
447.11,-0.84912109375
447.12,-0.79638671875
447.13,-0.74365234375
447.14,-0.7041015625
447.15,-0.68603515625
447.16,-0.68896484375
447.17,-0.70947265625
447.18,-0.7412109375
447.19,-0.77880859375
447.2,-0.81689453125
447.21,-0.85400390625
447.22,-0.89404296875
447.23,-0.9365234375
447.24,-0.97265625
447.25,-0.99072265625
447.259,-0.982421875
447.269,-0.94384765625
447.279,-0.87841796875
447.289,-0.7919921875
447.299,-0.69873046875
447.309,-0.61279296875
447.319,-0.54638671875
447.329,-0.50439453125
447.339,-0.48486328125
447.349,-0.477783203125
447.359,-0.475830078125
447.369,-0.480224609375
447.379,-0.494384765625
447.389,-0.515625
447.399,-0.54150390625
447.409,-0.57421875
447.419,-0.60986328125
447.429,-0.6416015625
447.439,-0.66015625
447.449,-0.65771484375
447.458,-0.62744140625
447.468,-0.568359375
447.478,-0.494384765625
447.488,-0.423828125
447.498,-0.373291015625
447.508,-0.35107421875
447.518,-0.35986328125
447.528,-0.396240234375
447.538,-0.451416015625
447.548,-0.51171875
447.558,-0.5556640625
447.568,-0.5595703125
447.578,-0.51123046875
447.588,-0.41845703125
447.598,-0.309326171875
447.608,-0.21435546875
447.618,-0.1527099609375
447.628,-0.1378173828125
447.638,-0.177490234375
447.648,-0.2607421875
447.656,-0.35791015625
447.666,-0.441650390625
447.676,-0.50341796875
447.686,-0.5458984375
447.696,-0.56298828125
447.706,-0.53515625
447.716,-0.4462890625
447.726,-0.30419921875
447.736,-0.14306640625
447.746,-0.00634765625
447.756,0.07037353515625
447.766,0.06890869140625
447.776,-0.0081024169921875
447.786,-0.1387939453125
447.796,-0.286865234375
447.806,-0.41845703125
447.816,-0.5166015625
447.826,-0.5791015625
447.836,-0.61083984375
447.846,-0.62255859375
447.85,-0.378662109375
447.86,-0.35888671875
447.87,-0.409912109375
447.88,-0.5234375
447.89,-0.66845703125
447.9,-0.8046875
447.91,-0.88916015625
447.92,-0.89111328125
447.93,-0.806640625
447.94,-0.65771484375
447.95,-0.475341796875
447.96,-0.29345703125
447.97,-0.1446533203125
447.98,-0.056121826171875
447.99,-0.041748046875
448,-0.09747314453125
448.009,-0.2081298828125
448.019,-0.34814453125
448.029,-0.485107421875
448.039,-0.59423828125
448.049,-0.6630859375
448.059,-0.68408203125
448.069,-0.666015625
448.079,-0.62939453125
448.089,-0.59423828125
448.099,-0.57666015625
448.109,-0.58544921875
448.119,-0.6162109375
448.129,-0.6611328125
448.139,-0.71484375
448.149,-0.7626953125
448.159,-0.783203125
448.169,-0.7607421875
448.179,-0.693359375
448.189,-0.5947265625
448.199,-0.482177734375
448.207,-0.36669921875
448.217,-0.25341796875
448.227,-0.1500244140625
448.237,-0.0704345703125
448.247,-0.034820556640625
448.257,-0.054107666015625
448.267,-0.116943359375
448.277,-0.1964111328125
448.287,-0.266357421875
448.297,-0.312744140625
448.307,-0.32763671875
448.317,-0.305419921875
448.327,-0.24951171875
448.337,-0.1689453125
448.347,-0.07623291015625
448.357,0.0113754272460938
448.367,0.076171875
448.377,0.1097412109375
448.387,0.115234375
448.397,0.09912109375
448.406,0.0635986328125
448.416,0.00902557373046875
448.426,-0.0606689453125
448.436,-0.135009765625
448.446,-0.19384765625
448.456,-0.212158203125
448.466,-0.1788330078125
448.476,-0.10675048828125
448.486,-0.0263519287109375
448.496,0.0298309326171875
448.506,0.03875732421875
448.516,-0.009490966796875
448.526,-0.10894775390625
448.536,-0.234130859375
448.546,-0.345458984375
448.556,-0.404052734375
448.566,-0.3857421875
448.576,-0.285400390625
448.586,-0.121826171875
448.596,0.0616455078125
448.6,0.238525390625
448.61,0.1539306640625
448.62,0.05950927734375
448.63,-0.042144775390625
448.64,-0.14453125
448.65,-0.2391357421875
448.66,-0.322265625
448.67,-0.38671875
448.68,-0.41650390625
448.69,-0.39794921875
448.7,-0.333251953125
448.71,-0.239501953125
448.72,-0.1373291015625
448.73,-0.046295166015625
448.74,0.0156707763671875
448.75,0.041717529296875
448.759,0.0408935546875
448.769,0.026947021484375
448.779,0.013702392578125
448.789,0.0179290771484375
448.799,0.045928955078125
448.809,0.08050537109375
448.819,0.09991455078125
448.829,0.09716796875
448.839,0.07208251953125
448.849,0.0276336669921875
448.859,-0.028900146484375
448.869,-0.09002685546875
448.879,-0.1441650390625
448.889,-0.1805419921875
448.899,-0.1983642578125
448.909,-0.2005615234375
448.919,-0.188720703125
448.929,-0.163818359375
448.939,-0.129150390625
448.949,-0.095947265625
448.957,-0.07781982421875
448.967,-0.07757568359375
448.977,-0.08453369140625
448.987,-0.08380126953125
448.997,-0.064208984375
449.007,-0.0231781005859375
449.017,0.031829833984375
449.027,0.0892333984375
449.037,0.13525390625
449.047,0.155029296875
449.057,0.1441650390625
449.067,0.106689453125
449.077,0.047515869140625
449.087,-0.02099609375
449.097,-0.08135986328125
449.107,-0.125244140625
449.117,-0.15380859375
449.127,-0.169677734375
449.137,-0.1724853515625
449.147,-0.1629638671875
449.156,-0.142333984375
449.166,-0.1097412109375
449.176,-0.0665283203125
449.186,-0.015716552734375
449.196,0.040496826171875
449.206,0.09393310546875
449.216,0.131591796875
449.226,0.1446533203125
449.236,0.1314697265625
449.246,0.09820556640625
449.256,0.055389404296875
449.266,0.0156707763671875
449.276,-0.01007080078125
449.286,-0.0195770263671875
449.296,-0.0169830322265625
449.306,-0.00492095947265625
449.316,0.0138626098632812
449.326,0.033782958984375
449.336,0.050628662109375
449.346,0.0628662109375
449.35,-0.0155792236328125
449.36,-0.048309326171875
449.37,-0.08099365234375
449.38,-0.1087646484375
449.39,-0.126220703125
449.4,-0.1275634765625
449.41,-0.1134033203125
449.42,-0.0931396484375
449.43,-0.0723876953125
449.44,-0.048828125
449.45,-0.0217132568359375
449.46,0.00396728515625
449.47,0.02105712890625
449.48,0.022918701171875
449.49,0.00545883178710938
449.5,-0.0294952392578125
449.509,-0.07574462890625
449.519,-0.1258544921875
449.529,-0.170166015625
449.539,-0.2001953125
449.549,-0.2139892578125
449.559,-0.2125244140625
449.569,-0.1944580078125
449.579,-0.1595458984375
449.589,-0.11395263671875
449.599,-0.070068359375
449.609,-0.03765869140625
449.619,-0.0167388916015625
449.629,-0.00448226928710938
449.639,0.000360488891601562
449.649,-0.000732421875
449.659,-0.0109786987304688
449.669,-0.0404052734375
449.679,-0.09375
449.689,-0.1630859375
449.699,-0.2325439453125
449.707,-0.28369140625
449.717,-0.302001953125
449.727,-0.288818359375
449.737,-0.255859375
449.747,-0.2081298828125
449.757,-0.1431884765625
449.767,-0.06689453125
449.777,0.00590896606445312
449.787,0.060699462890625
449.797,0.08441162109375
449.807,0.066162109375
449.817,0.0104904174804688
449.827,-0.06024169921875
449.837,-0.1256103515625
449.847,-0.1766357421875
449.857,-0.20458984375
449.867,-0.2025146484375
449.877,-0.1795654296875
449.887,-0.1541748046875
449.897,-0.134033203125
449.906,-0.11712646484375
449.916,-0.10321044921875
449.926,-0.0914306640625
449.936,-0.07794189453125
449.946,-0.06622314453125
449.956,-0.0677490234375
449.966,-0.08612060546875
449.976,-0.1099853515625
449.986,-0.1256103515625
449.996,-0.1285400390625
450.006,-0.118896484375
450.016,-0.09832763671875
450.026,-0.079345703125
450.036,-0.081787109375
450.046,-0.1104736328125
450.056,-0.147216796875
450.066,-0.1688232421875
450.076,-0.1654052734375
450.086,-0.140625
450.096,-0.10455322265625
450.1,-0.09906005859375
450.11,-0.1326904296875
450.12,-0.1593017578125
450.13,-0.1483154296875
450.14,-0.07781982421875
450.15,0.032440185546875
450.16,0.13720703125
450.17,0.2139892578125
450.18,0.259521484375
450.19,0.251708984375
450.2,0.1619873046875
450.21,-0.00677871704101562
450.22,-0.2259521484375
450.23,-0.462158203125
450.24,-0.67724609375
450.25,-0.8310546875
450.259,-0.89404296875
450.269,-0.84765625
450.279,-0.6904296875
450.289,-0.44677734375
450.299,-0.171875
450.309,0.0716552734375
450.319,0.2476806640625
450.329,0.346435546875
450.339,0.36669921875
450.349,0.31787109375
450.359,0.2301025390625
450.369,0.137451171875
450.379,0.056732177734375
450.389,-0.02081298828125
450.399,-0.11419677734375
450.409,-0.231689453125
450.419,-0.36328125
450.429,-0.4892578125
450.439,-0.5869140625
450.449,-0.6240234375
450.457,-0.5654296875
450.467,-0.413330078125
450.477,-0.20947265625
450.487,0.00194740295410156
450.497,0.1990966796875
450.507,0.362548828125
450.517,0.46533203125
450.527,0.492919921875
450.537,0.4541015625
450.547,0.356689453125
450.557,0.1954345703125
450.567,-0.025238037109375
450.577,-0.265869140625
450.587,-0.464599609375
450.597,-0.580078125
450.607,-0.61767578125
450.617,-0.59814453125
450.627,-0.521484375
450.637,-0.3759765625
450.647,-0.18359375
450.656,-0.00423812866210938
450.666,0.10382080078125
450.676,0.11920166015625
450.686,0.0638427734375
450.696,-0.0223236083984375
450.706,-0.11273193359375
450.716,-0.191162109375
450.726,-0.237060546875
450.736,-0.2301025390625
450.746,-0.170166015625
450.756,-0.08935546875
450.766,-0.036163330078125
450.776,-0.04254150390625
450.786,-0.1077880859375
450.796,-0.208984375
450.806,-0.318115234375
450.816,-0.409423828125
450.826,-0.46044921875
450.836,-0.4638671875
450.846,-0.42822265625
450.85,-0.1502685546875
450.86,-0.14404296875
450.87,-0.165283203125
450.88,-0.2008056640625
450.89,-0.239990234375
450.9,-0.28173828125
450.91,-0.324462890625
450.92,-0.357421875
450.93,-0.364990234375
450.94,-0.3388671875
450.95,-0.28515625
450.96,-0.2186279296875
450.97,-0.15576171875
450.98,-0.1094970703125
450.99,-0.0853271484375
451,-0.08197021484375
451.009,-0.094482421875
451.019,-0.1148681640625
451.029,-0.1402587890625
451.039,-0.174072265625
451.049,-0.21533203125
451.059,-0.255126953125
451.069,-0.28173828125
451.079,-0.28173828125
451.089,-0.2467041015625
451.099,-0.1859130859375
451.109,-0.12353515625
451.119,-0.08831787109375
451.129,-0.10406494140625
451.139,-0.1719970703125
451.149,-0.264404296875
451.159,-0.34423828125
451.169,-0.382080078125
451.179,-0.361572265625
451.189,-0.287109375
451.199,-0.1826171875
451.207,-0.0819091796875
451.217,-0.0218505859375
451.227,-0.029327392578125
451.237,-0.10577392578125
451.247,-0.231689453125
451.257,-0.375732421875
451.267,-0.49755859375
451.277,-0.560546875
451.287,-0.55029296875
451.297,-0.474853515625
451.307,-0.35888671875
451.317,-0.2374267578125
451.327,-0.136962890625
451.337,-0.070556640625
451.347,-0.043304443359375
451.357,-0.050811767578125
451.367,-0.07659912109375
451.377,-0.100341796875
451.387,-0.1068115234375
451.397,-0.0938720703125
451.406,-0.08013916015625
451.416,-0.094970703125
451.426,-0.1563720703125
451.436,-0.262939453125
451.446,-0.398193359375
451.456,-0.53466796875
451.466,-0.64404296875
451.476,-0.69921875
451.486,-0.6796875
451.496,-0.58203125
451.506,-0.42919921875
451.516,-0.255859375
451.526,-0.10284423828125
451.536,-0.00451278686523438
451.546,0.0258941650390625
451.556,-0.00120258331298828
451.566,-0.058807373046875
451.576,-0.1142578125
451.586,-0.145751953125
451.596,-0.1507568359375
451.6,-0.2177734375
451.61,-0.29541015625
451.62,-0.37841796875
451.63,-0.448974609375
451.64,-0.48876953125
451.65,-0.48388671875
451.66,-0.432861328125
451.67,-0.34619140625
451.68,-0.248291015625
451.69,-0.1727294921875
451.7,-0.151611328125
451.71,-0.203369140625
451.72,-0.33544921875
451.73,-0.54052734375
451.74,-0.779296875
451.75,-0.9873046875
451.759,-1.1181640625
451.769,-1.1689453125
451.779,-1.1591796875
451.789,-1.109375
451.799,-1.0419921875
451.809,-0.98388671875
451.819,-0.94580078125
451.829,-0.9267578125
451.839,-0.927734375
451.849,-0.95263671875
451.859,-0.99365234375
451.869,-1.0361328125
451.879,-1.0673828125
451.889,-1.0732421875
451.899,-1.0390625
451.909,-0.9755859375
451.919,-0.900390625
451.929,-0.82275390625
451.939,-0.7529296875
451.949,-0.7109375
451.957,-0.7021484375
451.967,-0.7119140625
451.977,-0.7333984375
451.987,-0.77099609375
451.997,-0.81494140625
452.007,-0.84765625
452.017,-0.86865234375
452.027,-0.88134765625
452.037,-0.87939453125
452.047,-0.85986328125
452.057,-0.83447265625
452.067,-0.81005859375
452.077,-0.78466796875
452.087,-0.75927734375
452.097,-0.73388671875
452.107,-0.705078125
452.117,-0.67529296875
452.127,-0.6552734375
452.137,-0.65185546875
452.147,-0.67138671875
452.156,-0.71484375
452.166,-0.77783203125
452.176,-0.85400390625
452.186,-0.93212890625
452.196,-1
452.206,-1.052734375
452.216,-1.0810546875
452.226,-1.0771484375
452.236,-1.0439453125
452.246,-0.99609375
452.256,-0.94873046875
452.266,-0.91650390625
452.276,-0.90185546875
452.286,-0.8984375
452.296,-0.89599609375
452.306,-0.884765625
452.316,-0.8515625
452.326,-0.79443359375
452.336,-0.73193359375
452.346,-0.68701171875
452.35,-0.8173828125
452.36,-0.81982421875
452.37,-0.79296875
452.38,-0.75
452.39,-0.7099609375
452.4,-0.69189453125
452.41,-0.701171875
452.42,-0.7333984375
452.43,-0.77880859375
452.44,-0.8271484375
452.45,-0.869140625
452.46,-0.900390625
452.47,-0.9130859375
452.48,-0.89404296875
452.49,-0.83056640625
452.5,-0.73095703125
452.508,-0.62646484375
452.518,-0.55615234375
452.528,-0.55322265625
452.538,-0.62255859375
452.548,-0.7353515625
452.558,-0.8408203125
452.568,-0.89453125
452.578,-0.8798828125
452.588,-0.80224609375
452.598,-0.68115234375
452.608,-0.54736328125
452.618,-0.432373046875
452.628,-0.361572265625
452.638,-0.347900390625
452.648,-0.396728515625
452.658,-0.50244140625
452.668,-0.6474609375
452.678,-0.8056640625
452.688,-0.9482421875
452.698,-1.0439453125
452.707,-1.0703125
452.717,-1.0234375
452.727,-0.9130859375
452.737,-0.7626953125
452.747,-0.59912109375
452.757,-0.443603515625
452.767,-0.305419921875
452.777,-0.1885986328125
452.787,-0.102783203125
452.797,-0.0638427734375
452.807,-0.07965087890625
452.817,-0.14013671875
452.827,-0.22265625
452.837,-0.299560546875
452.847,-0.345458984375
452.857,-0.344482421875
452.867,-0.296630859375
452.877,-0.2138671875
452.887,-0.11163330078125
452.897,-0.0063629150390625
452.906,0.08416748046875
452.916,0.1439208984375
452.926,0.1630859375
452.936,0.142822265625
452.946,0.09063720703125
452.956,0.0155487060546875
452.966,-0.0704345703125
452.976,-0.1556396484375
452.986,-0.2283935546875
452.996,-0.272216796875
453.006,-0.27392578125
453.016,-0.2344970703125
453.026,-0.1680908203125
453.036,-0.09710693359375
453.046,-0.0484619140625
453.056,-0.04376220703125
453.066,-0.08721923828125
453.076,-0.160400390625
453.086,-0.2314453125
453.096,-0.271728515625
453.1,0.09808349609375
453.11,0.14404296875
453.12,0.1434326171875
453.13,0.0953369140625
453.14,0.0135879516601562
453.15,-0.0770263671875
453.16,-0.160400390625
453.17,-0.227783203125
453.18,-0.262939453125
453.19,-0.25341796875
453.2,-0.2135009765625
453.21,-0.1761474609375
453.22,-0.1656494140625
453.23,-0.187255859375
453.24,-0.2288818359375
453.25,-0.271728515625
453.258,-0.302001953125
453.268,-0.30712890625
453.278,-0.27294921875
453.288,-0.190185546875
453.298,-0.06170654296875
453.308,0.089111328125
453.318,0.226318359375
453.328,0.31787109375
453.338,0.347412109375
453.348,0.322021484375
453.358,0.26708984375
453.368,0.2064208984375
453.378,0.1485595703125
453.388,0.09588623046875
453.398,0.047149658203125
453.408,-0.0116653442382812
453.418,-0.10601806640625
453.428,-0.25
453.438,-0.4287109375
453.448,-0.60009765625
453.457,-0.712890625
453.467,-0.72998046875
453.477,-0.64453125
453.487,-0.4775390625
453.497,-0.27099609375
453.507,-0.0765380859375
453.517,0.06829833984375
453.527,0.1461181640625
453.537,0.151611328125
453.547,0.094970703125
453.557,-0.00177574157714844
453.567,-0.11456298828125
453.577,-0.2105712890625
453.587,-0.259521484375
453.597,-0.263427734375
453.607,-0.25048828125
453.617,-0.244140625
453.627,-0.253662109375
453.637,-0.2763671875
453.647,-0.302978515625
453.656,-0.327392578125
453.666,-0.339599609375
453.676,-0.321533203125
453.686,-0.2607421875
453.696,-0.169677734375
453.706,-0.0819091796875
453.716,-0.0316162109375
453.726,-0.0318603515625
453.736,-0.07427978515625
453.746,-0.1356201171875
453.756,-0.186279296875
453.766,-0.2108154296875
453.776,-0.2117919921875
453.786,-0.2041015625
453.796,-0.2137451171875
453.806,-0.2626953125
453.816,-0.345458984375
453.826,-0.4306640625
453.836,-0.4775390625
453.846,-0.453857421875
453.85,0.342041015625
453.86,0.4443359375
453.87,0.487548828125
453.88,0.461669921875
453.89,0.36474609375
453.9,0.2120361328125
453.91,0.031341552734375
453.92,-0.14990234375
453.93,-0.304931640625
453.94,-0.411865234375
453.95,-0.45556640625
453.96,-0.423583984375
453.97,-0.315673828125
453.98,-0.1556396484375
453.99,0.0199432373046875
454,0.174072265625
454.008,0.275634765625
454.018,0.313232421875
454.028,0.293701171875
454.038,0.225830078125
454.048,0.12384033203125
454.058,0.0151901245117188
454.068,-0.0762939453125
454.078,-0.136962890625
454.088,-0.1575927734375
454.098,-0.1383056640625
454.108,-0.0933837890625
454.118,-0.042510986328125
454.128,-0.000996589660644531
454.138,0.02679443359375
454.148,0.04803466796875
454.158,0.068115234375
454.168,0.08172607421875
454.178,0.08343505859375
454.188,0.07293701171875
454.198,0.050384521484375
454.207,0.0215301513671875
454.217,-0.00444793701171875
454.227,-0.026824951171875
454.237,-0.045745849609375
454.247,-0.05084228515625
454.257,-0.0386962890625
454.267,-0.02294921875
454.277,-0.0103073120117188
454.287,0.00827789306640625
454.297,0.035369873046875
454.307,0.060882568359375
454.317,0.07666015625
454.327,0.07470703125
454.337,0.043975830078125
454.347,-0.0114059448242188
454.357,-0.071044921875
454.367,-0.12164306640625
454.377,-0.158203125
454.387,-0.1693115234375
454.397,-0.1492919921875
454.406,-0.11248779296875
454.416,-0.07952880859375
454.426,-0.0657958984375
454.436,-0.0830078125
454.446,-0.1275634765625
454.456,-0.1773681640625
454.466,-0.211669921875
454.476,-0.2169189453125
454.486,-0.1837158203125
454.496,-0.1298828125
454.506,-0.1038818359375
454.516,-0.14013671875
454.526,-0.22705078125
454.536,-0.315185546875
454.546,-0.337646484375
454.556,-0.2344970703125
454.566,0.00384712219238281
454.576,0.302734375
454.586,0.54052734375
454.596,0.6298828125
454.6,-0.36669921875
454.61,-0.55810546875
454.62,-0.68701171875
454.63,-0.78369140625
454.64,-0.88671875
454.65,-0.98193359375
454.66,-1.0380859375
454.67,-1.0654296875
454.68,-1.1123046875
454.69,-1.19140625
454.7,-1.25
454.71,-1.2421875
454.72,-1.1708984375
454.73,-1.037109375
454.74,-0.85205078125
454.75,-0.67919921875
454.758,-0.58642578125
454.768,-0.56982421875
454.778,-0.5771484375
454.788,-0.5654296875
454.798,-0.52685546875
454.808,-0.48828125
454.818,-0.475341796875
454.828,-0.48193359375
454.838,-0.498779296875
454.848,-0.53369140625
454.858,-0.59619140625
454.868,-0.6748046875
454.878,-0.74169921875
454.888,-0.77392578125
454.898,-0.775390625
454.908,-0.7646484375
454.918,-0.7548828125
454.928,-0.7451171875
454.938,-0.7216796875
454.948,-0.66748046875
454.957,-0.556640625
454.967,-0.368896484375
454.977,-0.13916015625
454.987,0.036102294921875
454.997,0.0738525390625
455.007,-0.036163330078125
455.017,-0.253173828125
455.027,-0.52392578125
455.037,-0.7783203125
455.047,-0.94140625
455.057,-0.98388671875
455.067,-0.9306640625
455.077,-0.82958984375
455.087,-0.72900390625
455.097,-0.66748046875
455.107,-0.6630859375
455.117,-0.705078125
455.127,-0.76904296875
455.137,-0.82470703125
455.147,-0.8369140625
455.156,-0.77685546875
455.166,-0.642578125
455.176,-0.459716796875
455.186,-0.2587890625
455.196,-0.056549072265625
455.206,0.123046875
455.216,0.2410888671875
455.226,0.273681640625
455.236,0.2293701171875
455.246,0.1279296875
455.256,-0.015777587890625
455.266,-0.1802978515625
455.276,-0.334716796875
455.286,-0.455322265625
455.296,-0.533203125
455.306,-0.564453125
455.316,-0.5390625
455.326,-0.4462890625
455.336,-0.30078125
455.346,-0.1470947265625
455.35,-0.00394058227539062
455.36,-0.0858154296875
455.37,-0.15283203125
455.38,-0.185791015625
455.39,-0.191650390625
455.4,-0.1917724609375
455.41,-0.1949462890625
455.42,-0.186767578125
455.43,-0.1553955078125
455.44,-0.1162109375
455.45,-0.09619140625
455.46,-0.104248046875
455.47,-0.1236572265625
455.48,-0.1295166015625
455.49,-0.1163330078125
455.5,-0.10845947265625
455.508,-0.1337890625
455.518,-0.193603515625
455.528,-0.2626953125
455.538,-0.310546875
455.548,-0.31982421875
455.558,-0.30029296875
455.568,-0.276123046875
455.578,-0.260986328125
455.588,-0.2459716796875
455.598,-0.21337890625
455.608,-0.15771484375
455.618,-0.09405517578125
455.628,-0.04913330078125
455.638,-0.0400390625
455.648,-0.06121826171875
455.658,-0.09173583984375
455.668,-0.11309814453125
455.678,-0.12371826171875
455.688,-0.138916015625
455.698,-0.1751708984375
455.707,-0.2305908203125
455.717,-0.282470703125
455.727,-0.305419921875
455.737,-0.2880859375
455.747,-0.237548828125
455.757,-0.18115234375
455.767,-0.1468505859375
455.777,-0.1439208984375
455.787,-0.1612548828125
455.797,-0.17578125
455.807,-0.1689453125
455.817,-0.1424560546875
455.827,-0.11322021484375
455.837,-0.0985107421875
455.847,-0.106201171875
455.857,-0.1258544921875
455.867,-0.1300048828125
455.877,-0.09478759765625
455.887,-0.0232391357421875
455.897,0.05169677734375
455.906,0.08642578125
455.916,0.049102783203125
455.926,-0.06536865234375
455.936,-0.2327880859375
455.946,-0.412841796875
455.956,-0.5654296875
455.966,-0.65673828125
455.976,-0.66943359375
455.986,-0.60498046875
455.996,-0.4814453125
456.006,-0.3291015625
456.016,-0.191162109375
456.026,-0.105712890625
456.036,-0.08782958984375
456.046,-0.126708984375
456.056,-0.194091796875
456.066,-0.253662109375
456.076,-0.2783203125
456.086,-0.26220703125
456.096,-0.21337890625
456.1,-0.1678466796875
456.11,-0.2626953125
456.12,-0.347412109375
456.13,-0.399658203125
456.14,-0.41357421875
456.15,-0.396484375
456.16,-0.35888671875
456.17,-0.30810546875
456.18,-0.2529296875
456.19,-0.2076416015625
456.2,-0.1851806640625
456.21,-0.1893310546875
456.22,-0.2156982421875
456.23,-0.255859375
456.24,-0.300537109375
456.25,-0.339599609375
456.258,-0.356201171875
456.268,-0.335205078125
456.278,-0.278564453125
456.288,-0.2000732421875
456.298,-0.11334228515625
456.308,-0.03594970703125
456.318,0.0165252685546875
456.328,0.037078857421875
456.338,0.021392822265625
456.348,-0.03106689453125
456.358,-0.11322021484375
456.368,-0.214111328125
456.378,-0.322265625
456.388,-0.422607421875
456.398,-0.496337890625
456.408,-0.52392578125
456.418,-0.498291015625
456.428,-0.42578125
456.438,-0.31982421875
456.448,-0.20068359375
456.457,-0.09881591796875
456.467,-0.037841796875
456.477,-0.0229339599609375
456.487,-0.05084228515625
456.497,-0.1080322265625
456.507,-0.1673583984375
456.517,-0.2052001953125
456.527,-0.209228515625
456.537,-0.17822265625
456.547,-0.1248779296875
456.557,-0.0697021484375
456.567,-0.031829833984375
456.577,-0.027679443359375
456.587,-0.061981201171875
456.597,-0.1251220703125
456.607,-0.203369140625
456.617,-0.284912109375
456.627,-0.359619140625
456.637,-0.420166015625
456.647,-0.463134765625
456.652,-0.59814453125
456.662,-0.6220703125
456.672,-0.64501953125
456.682,-0.669921875
456.692,-0.69970703125
456.702,-0.732421875
456.712,-0.763671875
456.722,-0.7890625
456.732,-0.80615234375
456.742,-0.810546875
456.752,-0.80224609375
456.762,-0.78369140625
456.772,-0.75732421875
456.782,-0.7294921875
456.792,-0.71044921875
456.802,-0.7060546875
456.809,-0.71435546875
456.819,-0.72705078125
456.829,-0.7314453125
456.839,-0.71875
456.849,-0.6884765625
456.859,-0.64501953125
456.869,-0.6005859375
456.879,-0.564453125
456.889,-0.54150390625
456.899,-0.53076171875
456.909,-0.53271484375
456.919,-0.544921875
456.929,-0.56298828125
456.939,-0.583984375
456.949,-0.59912109375
456.959,-0.59423828125
456.969,-0.56396484375
456.979,-0.51318359375
456.989,-0.45068359375
456.999,-0.3837890625
457.008,-0.321044921875
457.018,-0.283447265625
457.028,-0.29638671875
457.038,-0.368408203125
457.048,-0.493408203125
457.058,-0.66455078125
457.068,-0.87255859375
457.078,-1.0986328125
457.088,-1.314453125
457.098,-1.486328125
457.108,-1.599609375
457.118,-1.6748046875
457.128,-1.7197265625
457.138,-1.7119140625
457.148,-1.6357421875
457.158,-1.49609375
457.168,-1.3115234375
457.178,-1.109375
457.188,-0.91748046875
457.198,-0.77099609375
457.207,-0.70263671875
457.217,-0.70703125
457.227,-0.7373046875
457.237,-0.75341796875
457.247,-0.76416015625
457.257,-0.80615234375
457.267,-0.90478515625
457.277,-1.0615234375
457.287,-1.2490234375
457.297,-1.423828125
457.307,-1.55859375
457.317,-1.6357421875
457.327,-1.6328125
457.337,-1.5390625
457.347,-1.39453125
457.357,-1.287109375
457.367,-1.279296875
457.377,-1.36328125
457.387,-1.48046875
457.397,-1.5712890625
457.402,-1.36328125
457.412,-1.3564453125
457.422,-1.466796875
457.432,-1.703125
457.442,-2.037109375
457.452,-2.41796875
457.462,-2.779296875
457.472,-3.083984375
457.482,-3.318359375
457.492,-3.509765625
457.502,-3.673828125
457.512,-3.7890625
457.522,-3.77734375
457.532,-3.578125
457.542,-3.203125
457.552,-2.71875
457.559,-2.205078125
457.569,-1.734375
457.579,-1.3486328125
457.589,-1.0654296875
457.599,-0.888671875
457.609,-0.8046875
457.619,-0.78759765625
457.629,-0.8076171875
457.639,-0.8408203125
457.649,-0.87255859375
457.659,-0.896484375
457.669,-0.91357421875
457.679,-0.9267578125
457.689,-0.9384765625
457.699,-0.95361328125
457.709,-0.98193359375
457.719,-1.0283203125
457.729,-1.08984375
457.739,-1.15234375
457.749,-1.205078125
457.758,-1.2392578125
457.768,-1.244140625
457.778,-1.2138671875
457.788,-1.15625
457.798,-1.08203125
457.808,-1.005859375
457.818,-0.9453125
457.828,-0.9150390625
457.838,-0.91552734375
457.848,-0.9306640625
457.858,-0.95849609375
457.868,-0.9951171875
457.878,-1.015625
457.888,-1.00390625
457.898,-0.97705078125
457.908,-0.94677734375
457.918,-0.91552734375
457.928,-0.888671875
457.938,-0.86962890625
457.948,-0.85400390625
457.957,-0.84228515625
457.967,-0.83544921875
457.977,-0.82958984375
457.987,-0.82958984375
457.997,-0.83837890625
458.007,-0.8505859375
458.017,-0.86376953125
458.027,-0.87255859375
458.037,-0.86572265625
458.047,-0.837890625
458.057,-0.794921875
458.067,-0.755859375
458.077,-0.7294921875
458.087,-0.71044921875
458.097,-0.69677734375
458.107,-0.6845703125
458.117,-0.669921875
458.127,-0.6591796875
458.137,-0.65673828125
458.147,-0.66455078125
458.152,-0.921875
458.162,-0.919921875
458.172,-0.89111328125
458.182,-0.849609375
458.192,-0.79443359375
458.202,-0.72900390625
458.212,-0.67724609375
458.222,-0.64697265625
458.232,-0.6240234375
458.242,-0.61767578125
458.252,-0.646484375
458.262,-0.69677734375
458.272,-0.73388671875
458.282,-0.75537109375
458.292,-0.7841796875
458.302,-0.82373046875
458.309,-0.85302734375
458.319,-0.8603515625
458.329,-0.84326171875
458.339,-0.798828125
458.349,-0.74072265625
458.359,-0.70166015625
458.369,-0.69091796875
458.379,-0.6826171875
458.389,-0.67041015625
458.399,-0.6787109375
458.409,-0.7138671875
458.419,-0.74169921875
458.429,-0.72998046875
458.439,-0.693359375
458.449,-0.67529296875
458.459,-0.68994140625
458.469,-0.7080078125
458.479,-0.6962890625
458.489,-0.66748046875
458.499,-0.67236328125
458.508,-0.7431640625
458.518,-0.85498046875
458.528,-0.94384765625
458.538,-0.96484375
458.548,-0.9326171875
458.558,-0.892578125
458.568,-0.85888671875
458.578,-0.8037109375
458.588,-0.7119140625
458.598,-0.615234375
458.608,-0.55419921875
458.618,-0.525390625
458.628,-0.4873046875
458.638,-0.419921875
458.648,-0.3515625
458.658,-0.322509765625
458.668,-0.336181640625
458.678,-0.353759765625
458.688,-0.33837890625
458.698,-0.302490234375
458.707,-0.2890625
458.717,-0.3193359375
458.727,-0.378662109375
458.737,-0.446533203125
458.747,-0.51611328125
458.757,-0.59912109375
458.767,-0.69873046875
458.777,-0.78564453125
458.787,-0.81884765625
458.797,-0.78955078125
458.807,-0.7265625
458.817,-0.66455078125
458.827,-0.6298828125
458.837,-0.63525390625
458.847,-0.6748046875
458.857,-0.7255859375
458.867,-0.751953125
458.877,-0.732421875
458.887,-0.67919921875
458.897,-0.61767578125
458.902,-0.56298828125
458.912,-0.541015625
458.922,-0.484375
458.932,-0.389892578125
458.942,-0.256591796875
458.952,-0.10626220703125
458.962,0.0232086181640625
458.972,0.10931396484375
458.982,0.151611328125
458.992,0.150390625
459.002,0.0997314453125
459.012,-0.00320243835449219
459.022,-0.1507568359375
459.032,-0.31591796875
459.042,-0.44970703125
459.052,-0.50341796875
459.059,-0.465087890625
459.069,-0.364501953125
459.079,-0.2421875
459.089,-0.12310791015625
459.099,-0.020538330078125
459.109,0.05914306640625
459.119,0.11346435546875
459.129,0.13232421875
459.139,0.0987548828125
459.149,0.0078125
459.159,-0.1165771484375
459.169,-0.2332763671875
459.179,-0.32177734375
459.189,-0.39013671875
459.199,-0.43896484375
459.209,-0.45361328125
459.219,-0.4287109375
459.229,-0.3720703125
459.239,-0.28759765625
459.249,-0.1768798828125
459.258,-0.04949951171875
459.268,0.06854248046875
459.278,0.1356201171875
459.288,0.11468505859375
459.298,0.00638961791992188
459.308,-0.1451416015625
459.318,-0.28271484375
459.328,-0.367919921875
459.338,-0.388671875
459.348,-0.34521484375
459.358,-0.24755859375
459.368,-0.12310791015625
459.378,-0.00377464294433594
459.388,0.0909423828125
459.398,0.14453125
459.408,0.1417236328125
459.418,0.08197021484375
459.428,-0.0127182006835938
459.438,-0.1048583984375
459.448,-0.1697998046875
459.457,-0.2105712890625
459.467,-0.236083984375
459.477,-0.2469482421875
459.487,-0.244384765625
459.497,-0.2332763671875
459.507,-0.2161865234375
459.517,-0.1956787109375
459.527,-0.1767578125
459.537,-0.156982421875
459.547,-0.1268310546875
459.557,-0.0867919921875
459.567,-0.05010986328125
459.577,-0.0276641845703125
459.587,-0.0178070068359375
459.597,-0.0132217407226562
459.607,-0.0146255493164062
459.617,-0.0227203369140625
459.627,-0.02789306640625
459.637,-0.023956298828125
459.647,-0.0183258056640625
459.651,-0.00780105590820312
459.661,0.00353050231933594
459.671,0.0265960693359375
459.681,0.06298828125
459.691,0.1080322265625
459.701,0.1422119140625
459.711,0.140380859375
459.721,0.093994140625
459.731,0.0212249755859375
459.741,-0.0489501953125
459.751,-0.10052490234375
459.761,-0.12841796875
459.771,-0.12646484375
459.781,-0.0946044921875
459.791,-0.042724609375
459.801,0.017578125
459.809,0.07403564453125
459.819,0.10626220703125
459.829,0.08843994140625
459.839,0.0124282836914062
459.849,-0.0968017578125
459.859,-0.1986083984375
459.869,-0.262451171875
459.879,-0.27490234375
459.889,-0.2337646484375
459.899,-0.1483154296875
459.909,-0.035797119140625
459.919,0.080810546875
459.929,0.173095703125
459.939,0.2137451171875
459.949,0.1905517578125
459.959,0.11444091796875
459.969,0.018463134765625
459.979,-0.059173583984375
459.989,-0.102294921875
459.999,-0.1199951171875
460.008,-0.12445068359375
460.018,-0.11993408203125
460.028,-0.1103515625
460.038,-0.1029052734375
460.048,-0.097900390625
460.058,-0.09014892578125
460.068,-0.0814208984375
460.078,-0.0714111328125
460.088,-0.053192138671875
460.098,-0.0313720703125
460.108,-0.017791748046875
460.118,-0.0080108642578125
460.128,0.00762176513671875
460.138,0.0258026123046875
460.148,0.043182373046875
460.158,0.06414794921875
460.168,0.08868408203125
460.178,0.1112060546875
460.188,0.126220703125
460.198,0.1270751953125
460.207,0.114501953125
460.217,0.09515380859375
460.227,0.066162109375
460.237,0.0248565673828125
460.247,-0.0184173583984375
460.257,-0.05645751953125
460.267,-0.08984375
460.277,-0.11688232421875
460.287,-0.1337890625
460.297,-0.1353759765625
460.307,-0.11639404296875
460.317,-0.07696533203125
460.327,-0.0221710205078125
460.337,0.03485107421875
460.347,0.07958984375
460.357,0.1068115234375
460.367,0.11407470703125
460.377,0.10296630859375
460.387,0.08319091796875
460.397,0.06048583984375
460.4,-0.0489501953125
460.41,-0.06005859375
460.42,-0.0653076171875
460.43,-0.06298828125
460.44,-0.053009033203125
460.45,-0.0372314453125
460.46,-0.0147552490234375
460.47,0.0202789306640625
460.48,0.069580078125
460.49,0.1282958984375
460.5,0.186279296875
460.51,0.23046875
460.52,0.2489013671875
460.53,0.2305908203125
460.54,0.1741943359375
460.55,0.09136962890625
460.559,0.00206565856933594
460.569,-0.0703125
460.579,-0.1094970703125
460.589,-0.10992431640625
460.599,-0.07391357421875
460.609,-0.014801025390625
460.619,0.04339599609375
460.629,0.0775146484375
460.639,0.07696533203125
460.649,0.04461669921875
460.659,-0.00772476196289062
460.669,-0.06475830078125
460.679,-0.111328125
460.689,-0.135498046875
460.699,-0.130615234375
460.709,-0.09539794921875
460.719,-0.033477783203125
460.729,0.047027587890625
460.739,0.1319580078125
460.749,0.1988525390625
460.758,0.2249755859375
460.768,0.2010498046875
460.778,0.130126953125
460.788,0.024322509765625
460.798,-0.09136962890625
460.808,-0.18505859375
460.818,-0.237060546875
460.828,-0.24658203125
460.838,-0.217041015625
460.848,-0.1497802734375
460.858,-0.0565185546875
460.868,0.0384521484375
460.878,0.11346435546875
460.888,0.1580810546875
460.898,0.1671142578125
460.908,0.1409912109375
460.918,0.0904541015625
460.928,0.030242919921875
460.938,-0.0307464599609375
460.948,-0.088134765625
460.956,-0.1348876953125
460.966,-0.160888671875
460.976,-0.1614990234375
460.986,-0.142578125
460.996,-0.1165771484375
461.006,-0.0916748046875
461.016,-0.0673828125
461.026,-0.04083251953125
461.036,-0.0129318237304688
461.046,0.016204833984375
461.056,0.049285888671875
461.066,0.08587646484375
461.076,0.12200927734375
461.086,0.1524658203125
461.096,0.168212890625
461.106,0.1575927734375
461.116,0.11444091796875
461.126,0.04400634765625
461.136,-0.039764404296875
461.146,-0.11981201171875
461.151,-0.061767578125
461.161,0.0114059448242188
461.171,0.06988525390625
461.181,0.0977783203125
461.191,0.09625244140625
461.201,0.07867431640625
461.211,0.055328369140625
461.221,0.0292205810546875
461.231,0.00236701965332031
461.241,-0.0207977294921875
461.251,-0.03619384765625
461.261,-0.04010009765625
461.271,-0.03179931640625
461.281,-0.0197906494140625
461.291,-0.0130386352539062
461.301,-0.0105514526367188
461.309,-0.00653076171875
461.319,0.00107192993164062
461.329,0.00726318359375
461.339,0.00630950927734375
461.349,-0.00432968139648438
461.359,-0.0277557373046875
461.369,-0.06524658203125
461.379,-0.1143798828125
461.389,-0.1673583984375
461.399,-0.2059326171875
461.409,-0.2108154296875
461.419,-0.17626953125
461.429,-0.11285400390625
461.439,-0.0419921875
461.449,0.0173492431640625
461.459,0.055206298828125
461.469,0.06414794921875
461.479,0.04315185546875
461.489,0.00304985046386719
461.499,-0.039520263671875
461.508,-0.0687255859375
461.518,-0.0767822265625
461.528,-0.065673828125
461.538,-0.041534423828125
461.548,-0.0166473388671875
461.558,-0.00588226318359375
461.568,-0.0111923217773438
461.578,-0.02490234375
461.588,-0.04425048828125
461.598,-0.067626953125
461.608,-0.09271240234375
461.618,-0.1217041015625
461.628,-0.15185546875
461.638,-0.17236328125
461.648,-0.1800537109375
461.658,-0.180419921875
461.668,-0.1767578125
461.678,-0.176513671875
461.688,-0.1868896484375
461.698,-0.196044921875
461.706,-0.1893310546875
461.716,-0.168701171875
461.726,-0.1409912109375
461.736,-0.109130859375
461.746,-0.0823974609375
461.756,-0.06927490234375
461.766,-0.066650390625
461.776,-0.0740966796875
461.786,-0.10028076171875
461.796,-0.14208984375
461.806,-0.17626953125
461.816,-0.1807861328125
461.826,-0.1474609375
461.836,-0.0748291015625
461.846,0.02325439453125
461.856,0.1075439453125
461.866,0.1351318359375
461.876,0.09130859375
461.886,-0.00603103637695312
461.896,-0.12310791015625
461.9,-0.337158203125
461.91,-0.347900390625
461.92,-0.35009765625
461.93,-0.328125
461.94,-0.28125
461.95,-0.2142333984375
461.96,-0.1248779296875
461.97,-0.0196075439453125
461.98,0.07672119140625
461.99,0.13720703125
462,0.150146484375
462.01,0.12091064453125
462.02,0.06524658203125
462.03,-0.00162220001220703
462.04,-0.0697021484375
462.05,-0.1331787109375
462.059,-0.1888427734375
462.069,-0.2322998046875
462.079,-0.25927734375
462.089,-0.26904296875
462.099,-0.258544921875
462.109,-0.2227783203125
462.119,-0.167236328125
462.129,-0.111328125
462.139,-0.07708740234375
462.149,-0.07598876953125
462.159,-0.105224609375
462.169,-0.14892578125
462.179,-0.187255859375
462.189,-0.204833984375
462.199,-0.18994140625
462.209,-0.1435546875
462.219,-0.09259033203125
462.229,-0.07147216796875
462.239,-0.09246826171875
462.249,-0.1427001953125
462.259,-0.198974609375
462.269,-0.2392578125
462.279,-0.25537109375
462.289,-0.259033203125
462.299,-0.2685546875
462.309,-0.2890625
462.319,-0.30908203125
462.329,-0.3125
462.339,-0.2900390625
462.349,-0.2469482421875
462.359,-0.1954345703125
462.369,-0.142822265625
462.379,-0.08935546875
462.389,-0.0362548828125
462.399,0.0084381103515625
462.409,0.032073974609375
462.419,0.0264129638671875
462.429,-0.0061798095703125
462.439,-0.053619384765625
462.449,-0.0987548828125
462.458,-0.1300048828125
462.468,-0.1492919921875
462.478,-0.165771484375
462.488,-0.184814453125
462.498,-0.2052001953125
462.508,-0.2264404296875
462.518,-0.250732421875
462.528,-0.27587890625
462.538,-0.294921875
462.548,-0.300048828125
462.558,-0.28369140625
462.568,-0.24609375
462.578,-0.1968994140625
462.588,-0.147216796875
462.598,-0.10418701171875
462.608,-0.07147216796875
462.618,-0.050079345703125
462.628,-0.040679931640625
462.638,-0.04595947265625
462.648,-0.0689697265625
462.652,-0.345458984375
462.662,-0.325439453125
462.672,-0.25146484375
462.682,-0.1444091796875
462.692,-0.0391845703125
462.702,0.032958984375
462.712,0.05450439453125
462.722,0.022491455078125
462.732,-0.05706787109375
462.742,-0.174560546875
462.752,-0.3154296875
462.762,-0.458251953125
462.772,-0.5830078125
462.782,-0.6748046875
462.792,-0.72021484375
462.802,-0.70556640625
462.811,-0.62353515625
462.821,-0.48291015625
462.831,-0.309326171875
462.841,-0.1422119140625
462.851,-0.0139312744140625
462.861,0.0633544921875
462.871,0.09375
462.881,0.091552734375
462.891,0.0731201171875
462.901,0.045806884765625
462.911,0.005706787109375
462.921,-0.05621337890625
462.931,-0.1478271484375
462.941,-0.27099609375
462.951,-0.415283203125
462.961,-0.55712890625
462.971,-0.6650390625
462.981,-0.7177734375
462.991,-0.724609375
463.001,-0.71875
463.009,-0.72705078125
463.019,-0.75439453125
463.029,-0.791015625
463.039,-0.82470703125
463.049,-0.84619140625
463.059,-0.853515625
463.069,-0.8525390625
463.079,-0.849609375
463.089,-0.84033203125
463.099,-0.8212890625
463.109,-0.794921875
463.119,-0.7705078125
463.129,-0.75634765625
463.139,-0.75830078125
463.149,-0.783203125
463.159,-0.83056640625
463.169,-0.88916015625
463.179,-0.94140625
463.189,-0.96630859375
463.199,-0.9482421875
463.208,-0.892578125
463.218,-0.8173828125
463.228,-0.73876953125
463.238,-0.66357421875
463.248,-0.599609375
463.258,-0.55224609375
463.268,-0.52587890625
463.278,-0.521484375
463.288,-0.53759765625
463.298,-0.5654296875
463.308,-0.59716796875
463.318,-0.63232421875
463.328,-0.67138671875
463.338,-0.7041015625
463.348,-0.72119140625
463.358,-0.71826171875
463.368,-0.6953125
463.378,-0.65869140625
463.388,-0.626953125
463.398,-0.61572265625
463.402,-0.6171875
463.412,-0.5947265625
463.422,-0.5791015625
463.432,-0.57275390625
463.442,-0.57177734375
463.452,-0.564453125
463.462,-0.54345703125
463.472,-0.50830078125
463.482,-0.46923828125
463.492,-0.4423828125
463.502,-0.448486328125
463.512,-0.491455078125
463.522,-0.54833984375
463.532,-0.59423828125
463.542,-0.61865234375
463.552,-0.6181640625
463.561,-0.59814453125
463.571,-0.580078125
463.581,-0.57421875
463.591,-0.56689453125
463.601,-0.53662109375
463.611,-0.476318359375
463.621,-0.38720703125
463.631,-0.284912109375
463.641,-0.1962890625
463.651,-0.134033203125
463.661,-0.09271240234375
463.671,-0.0665283203125
463.681,-0.05108642578125
463.691,-0.0372314453125
463.701,-0.0222320556640625
463.711,-0.0157318115234375
463.721,-0.02593994140625
463.731,-0.0511474609375
463.741,-0.08477783203125
463.751,-0.11981201171875
463.759,-0.1517333984375
463.769,-0.1788330078125
463.779,-0.1995849609375
463.789,-0.2110595703125
463.799,-0.212158203125
463.809,-0.2044677734375
463.819,-0.1875
463.829,-0.1580810546875
463.839,-0.12042236328125
463.849,-0.08734130859375
463.859,-0.06646728515625
463.869,-0.0548095703125
463.879,-0.0506591796875
463.889,-0.059661865234375
463.899,-0.0849609375
463.909,-0.11871337890625
463.919,-0.1475830078125
463.929,-0.165283203125
463.939,-0.175048828125
463.949,-0.1783447265625
463.958,-0.1722412109375
463.968,-0.16015625
463.978,-0.1534423828125
463.988,-0.158447265625
463.998,-0.173828125
464.008,-0.1961669921875
464.018,-0.2205810546875
464.028,-0.235595703125
464.038,-0.2254638671875
464.048,-0.1861572265625
464.058,-0.1343994140625
464.068,-0.0914306640625
464.078,-0.06597900390625
464.088,-0.06219482421875
464.098,-0.083984375
464.108,-0.12432861328125
464.118,-0.161865234375
464.128,-0.1737060546875
464.138,-0.151123046875
464.148,-0.1104736328125
464.153,-0.5068359375
464.163,-0.603515625
464.173,-0.63720703125
464.183,-0.61279296875
464.193,-0.55322265625
464.203,-0.476806640625
464.213,-0.384521484375
464.223,-0.27587890625
464.233,-0.1632080078125
464.243,-0.059661865234375
464.253,0.0291748046875
464.263,0.09521484375
464.273,0.11944580078125
464.283,0.080810546875
464.293,-0.024749755859375
464.303,-0.1722412109375
464.311,-0.318359375
464.321,-0.4267578125
464.331,-0.4775390625
464.341,-0.461181640625
464.351,-0.38134765625
464.361,-0.260986328125
464.371,-0.1312255859375
464.381,-0.014984130859375
464.391,0.07177734375
464.401,0.11279296875
464.411,0.1048583984375
464.421,0.0670166015625
464.431,0.023284912109375
464.441,-0.0134048461914062
464.451,-0.035797119140625
464.461,-0.038330078125
464.471,-0.02081298828125
464.481,0.0104904174804688
464.491,0.042724609375
464.501,0.055206298828125
464.509,0.026702880859375
464.519,-0.0465087890625
464.529,-0.1484375
464.539,-0.261474609375
464.549,-0.3720703125
464.559,-0.461669921875
464.569,-0.5107421875
464.579,-0.50341796875
464.589,-0.4365234375
464.599,-0.324951171875
464.609,-0.19970703125
464.619,-0.0858154296875
464.629,0.00144767761230469
464.639,0.049835205078125
464.649,0.053497314453125
464.659,0.0246124267578125
464.669,-0.0110931396484375
464.679,-0.033050537109375
464.689,-0.039215087890625
464.699,-0.042938232421875
464.708,-0.05303955078125
464.718,-0.060302734375
464.728,-0.0545654296875
464.738,-0.049224853515625
464.748,-0.073974609375
464.758,-0.1463623046875
464.768,-0.25732421875
464.778,-0.37353515625
464.788,-0.4501953125
464.798,-0.459228515625
464.808,-0.404541015625
464.818,-0.300537109375
464.828,-0.1536865234375
464.838,0.0306549072265625
464.848,0.2271728515625
464.858,0.385009765625
464.868,0.45263671875
464.878,0.413818359375
464.888,0.29736328125
464.898,0.1478271484375
464.903,-0.53125
464.913,-0.55419921875
464.923,-0.4921875
464.933,-0.3525390625
464.943,-0.168212890625
464.953,0.0171661376953125
464.963,0.163818359375
464.973,0.2427978515625
464.983,0.2415771484375
464.993,0.1737060546875
465.003,0.0738525390625
465.013,-0.02703857421875
465.023,-0.1114501953125
465.033,-0.1722412109375
465.043,-0.214599609375
465.053,-0.24755859375
465.061,-0.26904296875
465.071,-0.26318359375
465.081,-0.215087890625
465.091,-0.1295166015625
465.101,-0.039794921875
465.111,0.0101547241210938
465.121,-0.00264549255371094
465.131,-0.0631103515625
465.141,-0.1334228515625
465.151,-0.182373046875
465.161,-0.19921875
465.171,-0.1920166015625
465.181,-0.1776123046875
465.191,-0.1619873046875
465.201,-0.13916015625
465.211,-0.1097412109375
465.221,-0.08502197265625
465.231,-0.076416015625
465.241,-0.0887451171875
465.251,-0.117919921875
465.259,-0.1529541015625
465.269,-0.1866455078125
465.279,-0.2218017578125
465.289,-0.256103515625
465.299,-0.276611328125
465.309,-0.275146484375
465.319,-0.252685546875
465.329,-0.205810546875
465.339,-0.1322021484375
465.349,-0.04290771484375
465.359,0.0404052734375
465.369,0.091064453125
465.379,0.09100341796875
465.389,0.047576904296875
465.399,-0.0186767578125
465.409,-0.09796142578125
465.419,-0.1898193359375
465.429,-0.2939453125
465.439,-0.4033203125
465.449,-0.491455078125
465.458,-0.525390625
465.468,-0.499267578125
465.478,-0.431884765625
465.488,-0.34521484375
465.498,-0.2509765625
465.508,-0.158447265625
465.518,-0.08294677734375
465.528,-0.0458984375
465.538,-0.06695556640625
465.548,-0.1444091796875
465.558,-0.250244140625
465.568,-0.34716796875
465.578,-0.403564453125
465.588,-0.398681640625
465.598,-0.32861328125
465.608,-0.2171630859375
465.618,-0.10772705078125
465.628,-0.036773681640625
465.638,-0.0112838745117188
465.648,-0.0107269287109375
465.652,-0.148193359375
465.662,-0.250244140625
465.672,-0.329833984375
465.682,-0.357421875
465.692,-0.319091796875
465.702,-0.2138671875
465.712,-0.06231689453125
465.722,0.08050537109375
465.732,0.1478271484375
465.742,0.09637451171875
465.752,-0.0743408203125
465.762,-0.317626953125
465.772,-0.5595703125
465.782,-0.73388671875
465.792,-0.80224609375
465.802,-0.75537109375
465.811,-0.60498046875
465.821,-0.380126953125
465.831,-0.1319580078125
465.841,0.06927490234375
465.851,0.1619873046875
465.861,0.126708984375
465.871,-0.0095367431640625
465.881,-0.1876220703125
465.891,-0.340087890625
465.901,-0.421630859375
465.911,-0.421142578125
465.921,-0.34716796875
465.931,-0.2225341796875
465.941,-0.08392333984375
465.951,0.0297393798828125
465.961,0.08636474609375
465.971,0.06732177734375
465.981,-0.0209808349609375
465.991,-0.1517333984375
466.001,-0.291259765625
466.009,-0.40869140625
466.019,-0.484375
466.029,-0.51220703125
466.039,-0.48779296875
466.049,-0.410888671875
466.059,-0.292236328125
466.069,-0.1517333984375
466.079,-0.0182037353515625
466.089,0.07379150390625
466.099,0.0992431640625
466.109,0.04779052734375
466.119,-0.07427978515625
466.129,-0.241943359375
466.139,-0.42236328125
466.149,-0.58740234375
466.159,-0.71240234375
466.169,-0.77734375
466.179,-0.7705078125
466.189,-0.68701171875
466.199,-0.53125
466.208,-0.32373046875
466.218,-0.09881591796875
466.228,0.10491943359375
466.238,0.251220703125
466.248,0.317626953125
466.258,0.306884765625
466.268,0.2374267578125
466.278,0.1346435546875
466.288,0.0223388671875
466.298,-0.08843994140625
466.308,-0.19970703125
466.318,-0.315185546875
466.328,-0.435791015625
466.338,-0.5615234375
466.348,-0.68798828125
466.358,-0.80810546875
466.368,-0.91650390625
466.378,-1.009765625
466.388,-1.083984375
466.398,-1.1298828125
466.402,-0.8486328125
466.412,-0.76513671875
466.422,-0.70263671875
466.432,-0.6552734375
466.442,-0.61328125
466.452,-0.56005859375
466.462,-0.491455078125
466.472,-0.4130859375
466.482,-0.333984375
466.492,-0.26416015625
466.502,-0.2154541015625
466.512,-0.19140625
466.522,-0.1929931640625
466.532,-0.2215576171875
466.542,-0.2724609375
466.552,-0.33349609375
466.56,-0.38818359375
466.57,-0.41845703125
466.58,-0.4169921875
466.59,-0.38916015625
466.6,-0.34326171875
466.61,-0.289794921875
466.62,-0.2437744140625
466.63,-0.221435546875
466.64,-0.23095703125
466.65,-0.270751953125
466.66,-0.328857421875
466.67,-0.3896484375
466.68,-0.449462890625
466.69,-0.51953125
466.7,-0.6162109375
466.71,-0.7470703125
466.72,-0.8984375
466.73,-1.0439453125
466.74,-1.162109375
466.75,-1.2353515625
466.759,-1.25390625
466.769,-1.220703125
466.779,-1.146484375
466.789,-1.0458984375
466.799,-0.93212890625
466.809,-0.8193359375
466.819,-0.72314453125
466.829,-0.65869140625
466.839,-0.6416015625
466.849,-0.6806640625
466.859,-0.78125
466.869,-0.9404296875
466.879,-1.126953125
466.889,-1.2880859375
466.899,-1.3681640625
466.909,-1.333984375
466.919,-1.1826171875
466.929,-0.94384765625
466.939,-0.67333984375
466.949,-0.4375
466.958,-0.282958984375
466.968,-0.22705078125
466.978,-0.2666015625
466.988,-0.394287109375
466.998,-0.60205078125
467.008,-0.8642578125
467.018,-1.123046875
467.028,-1.32421875
467.038,-1.4501953125
467.048,-1.513671875
467.058,-1.517578125
467.068,-1.46484375
467.078,-1.3828125
467.088,-1.310546875
467.098,-1.2734375
467.108,-1.2841796875
467.118,-1.3369140625
467.128,-1.4111328125
467.138,-1.4892578125
467.148,-1.5810546875
467.153,-2.171875
467.163,-1.8173828125
467.173,-1.2880859375
467.183,-0.7119140625
467.193,-0.1875
467.203,0.22998046875
467.213,0.513671875
467.223,0.6474609375
467.233,0.62109375
467.243,0.430908203125
467.253,0.0836181640625
467.263,-0.40283203125
467.273,-0.994140625
467.283,-1.6298828125
467.293,-2.234375
467.303,-2.7265625
467.31,-3.02734375
467.32,-3.08203125
467.33,-2.896484375
467.34,-2.5546875
467.35,-2.193359375
467.36,-1.9208984375
467.37,-1.767578125
467.38,-1.6953125
467.39,-1.6591796875
467.4,-1.6357421875
467.41,-1.6083984375
467.42,-1.55859375
467.43,-1.484375
467.44,-1.40234375
467.45,-1.3193359375
467.46,-1.23046875
467.47,-1.1357421875
467.48,-1.0498046875
467.49,-0.98828125
467.5,-0.9580078125
467.509,-0.94970703125
467.519,-0.9521484375
467.529,-0.97509765625
467.539,-1.0302734375
467.549,-1.0986328125
467.559,-1.150390625
467.569,-1.1650390625
467.579,-1.142578125
467.589,-1.1005859375
467.599,-1.0634765625
467.609,-1.037109375
467.619,-1.0146484375
467.629,-0.98681640625
467.639,-0.95458984375
467.649,-0.92578125
467.659,-0.91162109375
467.669,-0.91552734375
467.679,-0.9375
467.689,-0.9736328125
467.699,-1.01953125
467.708,-1.068359375
467.718,-1.1064453125
467.728,-1.12890625
467.738,-1.1376953125
467.748,-1.12890625
467.758,-1.099609375
467.768,-1.05859375
467.778,-1.0146484375
467.788,-0.970703125
467.798,-0.9326171875
467.808,-0.91015625
467.818,-0.91259765625
467.828,-0.93896484375
467.838,-0.97998046875
467.848,-1.0205078125
467.858,-1.0380859375
467.868,-1.0107421875
467.878,-0.94384765625
467.888,-0.8671875
467.898,-0.81640625
467.903,-0.9736328125
467.913,-1.0341796875
467.923,-1.0869140625
467.933,-1.119140625
467.943,-1.1259765625
467.953,-1.1103515625
467.963,-1.0810546875
467.973,-1.046875
467.983,-1.01953125
467.993,-1.0029296875
468.003,-1
468.013,-1.0126953125
468.023,-1.033203125
468.033,-1.0546875
468.043,-1.0693359375
468.053,-1.0693359375
468.06,-1.05078125
468.07,-1.015625
468.08,-0.9794921875
468.09,-0.951171875
468.1,-0.92919921875
468.11,-0.91650390625
468.12,-0.9189453125
468.13,-0.93359375
468.14,-0.95654296875
468.15,-0.98486328125
468.16,-1.013671875
468.17,-1.041015625
468.18,-1.0625
468.19,-1.07421875
468.2,-1.0751953125
468.21,-1.072265625
468.22,-1.0703125
468.23,-1.0673828125
468.24,-1.064453125
468.25,-1.056640625
468.259,-1.0400390625
468.269,-1.0146484375
468.279,-0.9814453125
468.289,-0.94384765625
468.299,-0.908203125
468.309,-0.8837890625
468.319,-0.87548828125
468.329,-0.87841796875
468.339,-0.88720703125
468.349,-0.89501953125
468.359,-0.8984375
468.369,-0.8984375
468.379,-0.89892578125
468.389,-0.90234375
468.399,-0.90625
468.409,-0.90478515625
468.419,-0.9013671875
468.429,-0.89892578125
468.439,-0.8896484375
468.449,-0.86083984375
468.458,-0.8134765625
468.468,-0.763671875
468.478,-0.71923828125
468.488,-0.67431640625
468.498,-0.62548828125
468.508,-0.58642578125
468.518,-0.576171875
468.528,-0.5927734375
468.538,-0.6171875
468.548,-0.630859375
468.558,-0.63671875
468.568,-0.64697265625
468.578,-0.6611328125
468.588,-0.65966796875
468.598,-0.626953125
468.608,-0.57470703125
468.618,-0.53173828125
468.628,-0.51806640625
468.638,-0.52978515625
468.648,-0.5439453125
468.652,-0.53369140625
468.662,-0.50390625
468.672,-0.467041015625
468.682,-0.45263671875
468.692,-0.480224609375
468.702,-0.5419921875
468.712,-0.60595703125
468.722,-0.63623046875
468.732,-0.61767578125
468.742,-0.56884765625
468.752,-0.52734375
468.762,-0.52587890625
468.772,-0.5732421875
468.782,-0.6484375
468.792,-0.7158203125
468.802,-0.74853515625
468.81,-0.74072265625
468.82,-0.7109375
468.83,-0.68994140625
468.84,-0.69775390625
468.85,-0.728515625
468.86,-0.75048828125
468.87,-0.72314453125
468.88,-0.62255859375
468.89,-0.459716796875
468.9,-0.277099609375
468.91,-0.1318359375
468.92,-0.05731201171875
468.93,-0.03558349609375
468.94,-0.02410888671875
468.95,-0.00415420532226562
468.96,0.0115203857421875
468.97,0.00391006469726562
468.98,-0.027313232421875
468.99,-0.05657958984375
469,-0.054473876953125
469.009,-0.0231475830078125
469.019,-0.00310325622558594
469.029,-0.035919189453125
469.039,-0.1201171875
469.049,-0.207763671875
469.059,-0.241455078125
469.069,-0.198974609375
469.079,-0.10748291015625
469.089,-0.011260986328125
469.099,0.06451416015625
469.109,0.1192626953125
469.119,0.1552734375
469.129,0.1580810546875
469.139,0.1119384765625
469.149,0.036590576171875
469.159,-0.020263671875
469.169,-0.032806396484375
469.179,-0.018768310546875
469.189,-0.00760650634765625
469.199,-0.00179767608642578
469.208,0.021697998046875
469.218,0.07403564453125
469.228,0.135009765625
469.238,0.178955078125
469.248,0.204345703125
469.258,0.229248046875
469.268,0.256591796875
469.278,0.254150390625
469.288,0.184326171875
469.298,0.0499267578125
469.308,-0.1043701171875
469.318,-0.23583984375
469.328,-0.3310546875
469.338,-0.38720703125
469.348,-0.388427734375
469.358,-0.32177734375
469.368,-0.2109375
469.378,-0.10113525390625
469.388,-0.0155792236328125
469.398,0.053619384765625
469.402,0.12030029296875
469.412,0.05206298828125
469.422,-0.024871826171875
469.432,-0.09967041015625
469.442,-0.1700439453125
469.452,-0.2413330078125
469.462,-0.309814453125
469.472,-0.356689453125
469.482,-0.364013671875
469.492,-0.322998046875
469.502,-0.2264404296875
469.512,-0.07550048828125
469.522,0.097900390625
469.532,0.2413330078125
469.542,0.315185546875
469.552,0.314453125
469.56,0.260986328125
469.57,0.18115234375
469.58,0.09478759765625
469.59,0.0154800415039062
469.6,-0.045257568359375
469.61,-0.07659912109375
469.62,-0.070556640625
469.63,-0.031829833984375
469.64,0.013275146484375
469.65,0.030364990234375
469.66,0.000666141510009766
469.67,-0.0687255859375
469.68,-0.151123046875
469.69,-0.2200927734375
469.7,-0.26123046875
469.71,-0.264892578125
469.72,-0.2261962890625
469.73,-0.1627197265625
469.74,-0.10809326171875
469.75,-0.0830078125
469.759,-0.0867919921875
469.769,-0.1136474609375
469.779,-0.1544189453125
469.789,-0.1895751953125
469.799,-0.199951171875
469.809,-0.1865234375
469.819,-0.1680908203125
469.829,-0.160400390625
469.839,-0.165771484375
469.849,-0.181640625
469.859,-0.2054443359375
469.869,-0.2291259765625
469.879,-0.23681640625
469.889,-0.2142333984375
469.899,-0.1614990234375
469.909,-0.09326171875
469.919,-0.02716064453125
469.929,0.0202178955078125
469.939,0.04046630859375
469.949,0.038055419921875
469.958,0.016021728515625
469.968,-0.0240478515625
469.978,-0.058685302734375
469.988,-0.05633544921875
469.998,-0.0157623291015625
470.008,0.041259765625
470.018,0.0938720703125
470.028,0.115478515625
470.038,0.085205078125
470.048,0.025238037109375
470.058,-0.016448974609375
470.068,-0.0244598388671875
470.078,-0.018524169921875
470.088,-0.0126876831054688
470.098,-0.0107803344726562
470.108,-0.022186279296875
470.118,-0.0562744140625
470.128,-0.1136474609375
470.138,-0.18603515625
470.148,-0.25439453125
470.152,-0.08563232421875
470.162,-0.066650390625
470.172,-0.07647705078125
470.182,-0.10400390625
470.192,-0.1278076171875
470.202,-0.12261962890625
470.212,-0.08447265625
470.222,-0.029205322265625
470.232,0.031463623046875
470.242,0.0882568359375
470.252,0.1302490234375
470.262,0.15966796875
470.272,0.1890869140625
470.282,0.2177734375
470.292,0.226806640625
470.302,0.1978759765625
470.31,0.123291015625
470.32,0.00386238098144531
470.33,-0.146240234375
470.34,-0.29345703125
470.35,-0.39501953125
470.36,-0.42236328125
470.37,-0.374755859375
470.38,-0.26806640625
470.39,-0.12078857421875
470.4,0.04107666015625
470.41,0.184814453125
470.42,0.28759765625
470.43,0.341796875
470.44,0.34716796875
470.45,0.313720703125
470.46,0.26171875
470.47,0.2054443359375
470.48,0.1483154296875
470.49,0.0897216796875
470.5,0.03167724609375
470.509,-0.0177764892578125
470.519,-0.0487060546875
470.529,-0.060455322265625
470.539,-0.061004638671875
470.549,-0.05535888671875
470.559,-0.04058837890625
470.569,-0.01385498046875
470.579,0.0179290771484375
470.589,0.0435791015625
470.599,0.059539794921875
470.609,0.06903076171875
470.619,0.07403564453125
470.629,0.073974609375
470.639,0.06951904296875
470.649,0.06268310546875
470.659,0.056182861328125
470.669,0.050994873046875
470.679,0.0438232421875
470.689,0.0283966064453125
470.699,0.00238609313964844
470.704,-0.0119094848632812
470.714,0.000686168670654297
470.724,0.00774765014648438
470.734,0.0122756958007812
470.744,0.0154037475585938
470.754,0.013824462890625
470.764,0.008392333984375
470.774,0.007171630859375
470.784,0.0193023681640625
470.794,0.04608154296875
470.804,0.07904052734375
470.814,0.109375
470.824,0.1328125
470.834,0.144775390625
470.844,0.13623046875
470.854,0.10162353515625
470.861,0.048614501953125
470.871,-0.00763702392578125
470.881,-0.055084228515625
470.891,-0.084716796875
470.901,-0.09210205078125
470.911,-0.0799560546875
470.921,-0.0538330078125
470.931,-0.0193328857421875
470.941,0.0163421630859375
470.951,0.046417236328125
470.961,0.0667724609375
470.971,0.06951904296875
470.981,0.044921875
470.991,-0.00511932373046875
471.001,-0.066162109375
471.011,-0.120361328125
471.021,-0.15283203125
471.031,-0.158203125
471.041,-0.1395263671875
471.051,-0.10113525390625
471.06,-0.046783447265625
471.07,0.017333984375
471.08,0.08294677734375
471.09,0.1436767578125
471.1,0.1898193359375
471.11,0.2017822265625
471.12,0.16259765625
471.13,0.06982421875
471.14,-0.06646728515625
471.15,-0.2210693359375
471.16,-0.35498046875
471.17,-0.43603515625
471.18,-0.451416015625
471.19,-0.40625
471.2,-0.318115234375
471.21,-0.211181640625
471.22,-0.1138916015625
471.23,-0.05230712890625
471.24,-0.038360595703125
471.25,-0.06793212890625
471.259,-0.123779296875
471.269,-0.1805419921875
471.279,-0.217529296875
471.289,-0.2266845703125
471.299,-0.2122802734375
471.309,-0.18505859375
471.319,-0.1534423828125
471.329,-0.120849609375
471.339,-0.0931396484375
471.349,-0.080810546875
471.359,-0.0919189453125
471.369,-0.13134765625
471.379,-0.2069091796875
471.389,-0.32275390625
471.399,-0.46875
471.409,-0.63232421875
471.419,-0.806640625
471.429,-0.97119140625
471.439,-1.099609375
471.449,-1.19140625
471.454,-1.095703125
471.464,-0.98974609375
471.474,-0.884765625
471.484,-0.78564453125
471.494,-0.70263671875
471.504,-0.6484375
471.514,-0.619140625
471.524,-0.6064453125
471.534,-0.611328125
471.544,-0.6240234375
471.554,-0.6357421875
471.564,-0.65185546875
471.574,-0.67529296875
471.584,-0.69091796875
471.594,-0.69775390625
471.604,-0.7119140625
471.611,-0.73291015625
471.621,-0.74169921875
471.631,-0.7392578125
471.641,-0.74609375
471.651,-0.7685546875
471.661,-0.7890625
471.671,-0.8046875
471.681,-0.82861328125
471.691,-0.85400390625
471.701,-0.84912109375
471.711,-0.8037109375
471.721,-0.74853515625
471.731,-0.7197265625
471.741,-0.7119140625
471.751,-0.69970703125
471.761,-0.6865234375
471.771,-0.69775390625
471.781,-0.734375
471.791,-0.75634765625
471.801,-0.72314453125
471.81,-0.642578125
471.82,-0.5595703125
471.83,-0.50048828125
471.84,-0.45849609375
471.85,-0.423828125
471.86,-0.4091796875
471.87,-0.427001953125
471.88,-0.4609375
471.89,-0.46923828125
471.9,-0.427734375
471.91,-0.36181640625
471.92,-0.31884765625
471.93,-0.317626953125
471.94,-0.3369140625
471.95,-0.357177734375
471.96,-0.39111328125
471.97,-0.466796875
471.98,-0.58251953125
471.99,-0.693359375
472,-0.74853515625
472.009,-0.74072265625
472.019,-0.70703125
472.029,-0.68017578125
472.039,-0.65185546875
472.049,-0.587890625
472.059,-0.47265625
472.069,-0.340087890625
472.079,-0.2607421875
472.089,-0.287109375
472.099,-0.401611328125
472.109,-0.5234375
472.119,-0.57470703125
472.129,-0.53759765625
472.139,-0.45849609375
472.149,-0.4130859375
472.159,-0.45068359375
472.169,-0.56689453125
472.179,-0.71240234375
472.189,-0.8232421875
472.199,-0.85400390625
472.203,-0.72705078125
472.213,-0.84765625
472.223,-0.9453125
472.233,-0.97119140625
472.243,-0.9091796875
472.253,-0.7705078125
472.263,-0.583984375
472.273,-0.38525390625
472.283,-0.2205810546875
472.293,-0.1356201171875
472.303,-0.1419677734375
472.313,-0.201171875
472.323,-0.25634765625
472.333,-0.277099609375
472.343,-0.266357421875
472.353,-0.239501953125
472.361,-0.2110595703125
472.371,-0.1885986328125
472.381,-0.1751708984375
472.391,-0.17578125
472.401,-0.1856689453125
472.411,-0.1846923828125
472.421,-0.1529541015625
472.431,-0.08599853515625
472.441,0.000767230987548828
472.451,0.08209228515625
472.461,0.1461181640625
472.471,0.2025146484375
472.481,0.26416015625
472.491,0.322265625
472.501,0.34423828125
472.511,0.300537109375
472.521,0.193603515625
472.531,0.056640625
472.541,-0.076171875
472.551,-0.1837158203125
472.56,-0.251708984375
472.57,-0.27099609375
472.58,-0.2391357421875
472.59,-0.1629638671875
472.6,-0.0655517578125
472.61,0.0222930908203125
472.62,0.07989501953125
472.63,0.10418701171875
472.64,0.10150146484375
472.65,0.07586669921875
472.66,0.0323486328125
472.67,-0.0120849609375
472.68,-0.03411865234375
472.69,-0.0234222412109375
472.7,0.013763427734375
472.71,0.07061767578125
472.72,0.1448974609375
472.73,0.223876953125
472.74,0.27734375
472.75,0.274169921875
472.759,0.20361328125
472.769,0.0860595703125
472.779,-0.038116455078125
472.789,-0.13330078125
472.799,-0.1793212890625
472.809,-0.1651611328125
472.819,-0.0941162109375
472.829,0.00497055053710938
472.839,0.08392333984375
472.849,0.10321044921875
472.859,0.05853271484375
472.869,-0.0189208984375
472.879,-0.09259033203125
472.889,-0.14404296875
472.899,-0.1673583984375
472.909,-0.159423828125
472.919,-0.123291015625
472.929,-0.07257080078125
472.939,-0.02325439453125
472.949,0.0195465087890625
472.954,0.1109619140625
472.964,0.06280517578125
472.974,-0.02288818359375
472.984,-0.11822509765625
472.994,-0.1832275390625
473.004,-0.1959228515625
473.014,-0.15478515625
473.024,-0.07562255859375
473.034,0.012420654296875
473.044,0.08087158203125
473.054,0.1138916015625
473.064,0.10211181640625
473.074,0.03778076171875
473.084,-0.06640625
473.094,-0.17138671875
473.104,-0.2440185546875
473.111,-0.275634765625
473.121,-0.26513671875
473.131,-0.212646484375
473.141,-0.1251220703125
473.151,-0.016021728515625
473.161,0.09686279296875
473.171,0.184326171875
473.181,0.2161865234375
473.191,0.190673828125
473.201,0.1348876953125
473.211,0.0733642578125
473.221,0.02008056640625
473.231,-0.0100173950195312
473.241,-0.00703811645507812
473.251,0.0246124267578125
473.261,0.07086181640625
473.271,0.11187744140625
473.281,0.127197265625
473.291,0.1092529296875
473.301,0.0679931640625
473.31,0.0191650390625
473.32,-0.026763916015625
473.33,-0.061981201171875
473.34,-0.07501220703125
473.35,-0.05548095703125
473.36,-0.0101852416992188
473.37,0.03814697265625
473.38,0.07568359375
473.39,0.10205078125
473.4,0.11322021484375
473.41,0.103759765625
473.42,0.07891845703125
473.43,0.05010986328125
473.44,0.027099609375
473.45,0.0161895751953125
473.46,0.0131683349609375
473.47,0.00804901123046875
473.48,0.00243949890136719
473.49,0.00505828857421875
473.5,0.0170745849609375
473.509,0.034088134765625
473.519,0.04962158203125
473.529,0.05767822265625
473.539,0.059783935546875
473.549,0.06158447265625
473.559,0.06671142578125
473.569,0.08123779296875
473.579,0.11083984375
473.589,0.1522216796875
473.599,0.1981201171875
473.609,0.2491455078125
473.619,0.3017578125
473.629,0.32470703125
473.639,0.262451171875
473.649,0.08538818359375
473.659,-0.1514892578125
473.669,-0.31396484375
473.679,-0.284912109375
473.689,-0.06988525390625
473.699,0.1981201171875
473.704,0.5673828125
473.714,0.59912109375
473.724,0.411376953125
473.734,0.044647216796875
473.744,-0.356201171875
473.754,-0.6171875
473.764,-0.6279296875
473.774,-0.4306640625
473.784,-0.196044921875
473.794,-0.09619140625
473.804,-0.1884765625
473.814,-0.381103515625
473.824,-0.492919921875
473.834,-0.38818359375
473.844,-0.07049560546875
473.854,0.33447265625
473.861,0.650390625
473.871,0.7353515625
473.881,0.5546875
473.891,0.1845703125
473.901,-0.240234375
473.911,-0.56640625
473.921,-0.669921875
473.931,-0.52978515625
473.941,-0.265625
473.951,-0.0679931640625
473.961,-0.07476806640625
473.971,-0.304931640625
473.981,-0.6826171875
473.991,-1.0771484375
474.001,-1.3369140625
474.011,-1.3525390625
474.021,-1.09765625
474.031,-0.6171875
474.041,0.00744247436523438
474.051,0.67919921875
474.06,1.2822265625
474.07,1.6875
474.08,1.7880859375
474.09,1.556640625
474.1,1.052734375
474.11,0.404296875
474.12,-0.242919921875
474.13,-0.75927734375
474.14,-1.0498046875
474.15,-1.052734375
474.16,-0.7431640625
474.17,-0.1669921875
474.18,0.55810546875
474.19,1.2822265625
474.2,1.8603515625
474.21,2.169921875
474.22,2.1328125
474.23,1.7421875
474.24,1.0703125
474.25,0.255126953125
474.259,-0.5673828125
474.269,-1.2998046875
474.279,-1.8896484375
474.289,-2.314453125
474.299,-2.583984375
474.309,-2.71875
474.319,-2.732421875
474.329,-2.60546875
474.339,-2.3046875
474.349,-1.8056640625
474.359,-1.1201171875
474.369,-0.301025390625
474.379,0.56298828125
474.389,1.3740234375
474.399,2.05078125
474.409,2.548828125
474.419,2.8671875
474.429,3.02734375
474.439,3.072265625
474.449,3.041015625
474.454,1.916015625
474.464,1.5068359375
474.474,1.0751953125
474.484,0.6455078125
474.494,0.2396240234375
474.504,-0.1104736328125
474.514,-0.3759765625
474.524,-0.5537109375
474.534,-0.65869140625
474.544,-0.70361328125
474.554,-0.7021484375
474.564,-0.6630859375
474.574,-0.5947265625
474.584,-0.50439453125
474.594,-0.400390625
474.604,-0.292236328125
474.611,-0.1845703125
474.621,-0.07598876953125
474.631,0.0303802490234375
474.641,0.11962890625
474.651,0.17138671875
474.661,0.17236328125
474.671,0.1259765625
474.681,0.05169677734375
474.691,-0.0228118896484375
474.701,-0.07470703125
474.711,-0.09783935546875
474.721,-0.09588623046875
474.731,-0.0673828125
474.741,-0.0146102905273438
474.751,0.043731689453125
474.761,0.0870361328125
474.771,0.104736328125
474.781,0.08673095703125
474.791,0.0289154052734375
474.801,-0.051177978515625
474.81,-0.1279296875
474.82,-0.184814453125
474.83,-0.204345703125
474.84,-0.1729736328125
474.85,-0.1007080078125
474.86,-0.0135116577148438
474.87,0.06695556640625
474.88,0.1195068359375
474.89,0.1201171875
474.9,0.063720703125
474.91,-0.0272216796875
474.92,-0.125732421875
474.93,-0.21435546875
474.94,-0.27734375
474.95,-0.299560546875
474.96,-0.276611328125
474.97,-0.2164306640625
474.98,-0.1309814453125
474.99,-0.04052734375
475,0.0262908935546875
475.008,0.052886962890625
475.018,0.04754638671875
475.028,0.0256195068359375
475.038,-0.00495147705078125
475.048,-0.03497314453125
475.058,-0.052276611328125
475.068,-0.056732177734375
475.078,-0.060455322265625
475.088,-0.06719970703125
475.098,-0.06927490234375
475.108,-0.068115234375
475.118,-0.077392578125
475.128,-0.1024169921875
475.138,-0.13427734375
475.148,-0.1646728515625
475.158,-0.1875
475.168,-0.1890869140625
475.178,-0.157470703125
475.188,-0.1014404296875
475.198,-0.045166015625
475.202,-0.00623321533203125
475.212,-0.058258056640625
475.222,-0.1282958984375
475.232,-0.208984375
475.242,-0.27587890625
475.252,-0.309814453125
475.262,-0.310791015625
475.272,-0.284423828125
475.282,-0.23095703125
475.292,-0.1534423828125
475.302,-0.0712890625
475.312,-0.00897216796875
475.322,0.0198211669921875
475.332,0.0103759765625
475.342,-0.032318115234375
475.352,-0.08489990234375
475.361,-0.1175537109375
475.371,-0.12164306640625
475.381,-0.11859130859375
475.391,-0.1363525390625
475.401,-0.1822509765625
475.411,-0.2413330078125
475.421,-0.293701171875
475.431,-0.317626953125
475.441,-0.295166015625
475.451,-0.2271728515625
475.461,-0.1353759765625
475.471,-0.0462646484375
475.481,0.0171661376953125
475.491,0.0303955078125
475.501,-0.018951416015625
475.511,-0.1060791015625
475.521,-0.1846923828125
475.531,-0.2279052734375
475.541,-0.2318115234375
475.551,-0.2042236328125
475.56,-0.1722412109375
475.57,-0.165771484375
475.58,-0.1844482421875
475.59,-0.205078125
475.6,-0.2066650390625
475.61,-0.16943359375
475.62,-0.07794189453125
475.63,0.061187744140625
475.64,0.218505859375
475.65,0.357421875
475.66,0.4462890625
475.67,0.46923828125
475.68,0.431884765625
475.69,0.3486328125
475.7,0.2291259765625
475.71,0.0838623046875
475.72,-0.0704345703125
475.73,-0.2186279296875
475.74,-0.356201171875
475.75,-0.486083984375
475.758,-0.59619140625
475.768,-0.65673828125
475.778,-0.64404296875
475.788,-0.55419921875
475.798,-0.400634765625
475.808,-0.212646484375
475.818,-0.0282440185546875
475.828,0.1298828125
475.838,0.249755859375
475.848,0.309326171875
475.858,0.29443359375
475.868,0.2301025390625
475.878,0.1639404296875
475.888,0.12432861328125
475.898,0.1141357421875
475.908,0.1307373046875
475.918,0.16748046875
475.928,0.2041015625
475.938,0.20166015625
475.948,0.12176513671875
475.952,-0.57763671875
475.962,-0.591796875
475.972,-0.57275390625
475.982,-0.52001953125
475.992,-0.416748046875
476.002,-0.255859375
476.012,-0.0693359375
476.022,0.08819580078125
476.032,0.1800537109375
476.042,0.2012939453125
476.052,0.1629638671875
476.062,0.086181640625
476.072,0.00604629516601562
476.082,-0.04266357421875
476.092,-0.05426025390625
476.102,-0.05853271484375
476.111,-0.0865478515625
476.121,-0.1356201171875
476.131,-0.1766357421875
476.141,-0.1876220703125
476.151,-0.17724609375
476.161,-0.178466796875
476.171,-0.21875
476.181,-0.290771484375
476.191,-0.35400390625
476.201,-0.37353515625
476.211,-0.34375
476.221,-0.275390625
476.231,-0.1790771484375
476.241,-0.0728759765625
476.251,0.0106887817382812
476.261,0.047515869140625
476.271,0.04901123046875
476.281,0.04913330078125
476.291,0.061737060546875
476.301,0.06610107421875
476.31,0.034515380859375
476.32,-0.039093017578125
476.33,-0.140625
476.34,-0.253662109375
476.35,-0.36328125
476.36,-0.4462890625
476.37,-0.4619140625
476.38,-0.373779296875
476.39,-0.1964111328125
476.4,0.00539398193359375
476.41,0.1683349609375
476.42,0.26318359375
476.43,0.2890625
476.44,0.261474609375
476.45,0.1943359375
476.46,0.0894775390625
476.47,-0.032989501953125
476.48,-0.1234130859375
476.49,-0.147216796875
476.5,-0.11883544921875
476.508,-0.0830078125
476.518,-0.0819091796875
476.528,-0.128173828125
476.538,-0.202392578125
476.548,-0.279541015625
476.558,-0.34619140625
476.568,-0.394775390625
476.578,-0.418701171875
476.588,-0.4169921875
476.598,-0.393798828125
476.608,-0.361083984375
476.618,-0.3310546875
476.628,-0.313720703125
476.638,-0.32080078125
476.648,-0.3681640625
476.658,-0.462646484375
476.668,-0.59326171875
476.678,-0.74169921875
476.688,-0.892578125
476.698,-1.037109375
476.703,-1.62109375
476.713,-1.6298828125
476.723,-1.5888671875
476.733,-1.533203125
476.743,-1.505859375
476.753,-1.5361328125
476.763,-1.6083984375
476.773,-1.6484375
476.783,-1.5966796875
476.793,-1.462890625
476.803,-1.302734375
476.813,-1.1650390625
476.823,-1.0771484375
476.833,-1.04296875
476.843,-1.0439453125
476.853,-1.0693359375
476.861,-1.11328125
476.871,-1.1591796875
476.881,-1.177734375
476.891,-1.1494140625
476.901,-1.0830078125
476.911,-1.009765625
476.921,-0.96728515625
476.931,-0.97607421875
476.941,-1.037109375
476.951,-1.1328125
476.961,-1.2333984375
476.971,-1.3056640625
476.981,-1.3291015625
476.991,-1.2958984375
477.001,-1.216796875
477.011,-1.109375
477.021,-0.99755859375
477.031,-0.900390625
477.041,-0.83251953125
477.051,-0.80322265625
477.06,-0.81494140625
477.07,-0.85791015625
477.08,-0.9150390625
477.09,-0.9697265625
477.1,-1.0029296875
477.11,-1.0068359375
477.12,-0.98486328125
477.13,-0.95263671875
477.14,-0.921875
477.15,-0.89697265625
477.16,-0.88037109375
477.17,-0.8779296875
477.18,-0.8955078125
477.19,-0.9375
477.2,-1
477.21,-1.0712890625
477.22,-1.1376953125
477.23,-1.1787109375
477.24,-1.1875
477.25,-1.1669921875
477.258,-1.125
477.268,-1.0771484375
477.278,-1.0341796875
477.288,-1.005859375
477.298,-0.99365234375
477.308,-0.9853515625
477.318,-0.97216796875
477.328,-0.951171875
477.338,-0.92333984375
477.348,-0.8984375
477.358,-0.8876953125
477.368,-0.8876953125
477.378,-0.89208984375
477.388,-0.90234375
477.398,-0.9189453125
477.408,-0.94189453125
477.418,-0.97265625
477.428,-1.0078125
477.438,-1.0390625
477.448,-1.060546875
477.452,-0.83642578125
477.462,-0.76318359375
477.472,-0.71044921875
477.482,-0.68701171875
477.492,-0.69140625
477.502,-0.7216796875
477.512,-0.7744140625
477.522,-0.8359375
477.532,-0.888671875
477.542,-0.923828125
477.552,-0.94140625
477.562,-0.93994140625
477.572,-0.921875
477.582,-0.90576171875
477.592,-0.90625
477.602,-0.9150390625
477.611,-0.91357421875
477.621,-0.89794921875
477.631,-0.8818359375
477.641,-0.87841796875
477.651,-0.8857421875
477.661,-0.890625
477.671,-0.88525390625
477.681,-0.87353515625
477.691,-0.865234375
477.701,-0.86328125
477.711,-0.86328125
477.721,-0.86376953125
477.731,-0.87109375
477.741,-0.8955078125
477.751,-0.9306640625
477.761,-0.95068359375
477.771,-0.9287109375
477.781,-0.8642578125
477.791,-0.77734375
477.801,-0.69091796875
477.81,-0.62548828125
477.82,-0.59814453125
477.83,-0.60888671875
477.84,-0.6396484375
477.85,-0.6796875
477.86,-0.73388671875
477.87,-0.80419921875
477.88,-0.8681640625
477.89,-0.89453125
477.9,-0.8623046875
477.91,-0.76953125
477.92,-0.63427734375
477.93,-0.493896484375
477.94,-0.395263671875
477.95,-0.370849609375
477.96,-0.42041015625
477.97,-0.5078125
477.98,-0.580078125
477.99,-0.59765625
478,-0.56005859375
478.008,-0.50244140625
478.018,-0.458984375
478.028,-0.44091796875
478.038,-0.429931640625
478.048,-0.39794921875
478.058,-0.33154296875
478.068,-0.247802734375
478.078,-0.1864013671875
478.088,-0.1873779296875
478.098,-0.271728515625
478.108,-0.43212890625
478.118,-0.62841796875
478.128,-0.80224609375
478.138,-0.8984375
478.148,-0.88671875
478.158,-0.763671875
478.168,-0.54931640625
478.178,-0.28857421875
478.188,-0.04315185546875
478.198,0.130126953125
478.203,0.349853515625
478.213,0.333984375
478.223,0.208740234375
478.233,0.00779342651367188
478.243,-0.1766357421875
478.253,-0.250244140625
478.263,-0.179443359375
478.273,-0.015655517578125
478.283,0.13525390625
478.293,0.1806640625
478.303,0.097412109375
478.313,-0.060028076171875
478.323,-0.20166015625
478.333,-0.263916015625
478.343,-0.247314453125
478.353,-0.2037353515625
478.361,-0.19140625
478.371,-0.238037109375
478.381,-0.325439453125
478.391,-0.397216796875
478.401,-0.39697265625
478.411,-0.316650390625
478.421,-0.204833984375
478.431,-0.1263427734375
478.441,-0.10723876953125
478.451,-0.1114501953125
478.461,-0.0697021484375
478.471,0.04827880859375
478.481,0.18798828125
478.491,0.2467041015625
478.501,0.162109375
478.511,-0.03131103515625
478.521,-0.22509765625
478.531,-0.319091796875
478.541,-0.2919921875
478.551,-0.1954345703125
478.56,-0.09649658203125
478.57,-0.028106689453125
478.58,0.0137100219726562
478.59,0.037567138671875
478.6,0.029693603515625
478.61,-0.0261077880859375
478.62,-0.11029052734375
478.63,-0.173095703125
478.64,-0.1846923828125
478.65,-0.16748046875
478.66,-0.1636962890625
478.67,-0.1783447265625
478.68,-0.1746826171875
478.69,-0.12249755859375
478.7,-0.040618896484375
478.71,0.020355224609375
478.72,0.035858154296875
478.73,0.026031494140625
478.74,0.0126571655273438
478.75,-0.013824462890625
478.758,-0.0682373046875
478.768,-0.134033203125
478.778,-0.1754150390625
478.788,-0.1787109375
478.798,-0.1583251953125
478.808,-0.12152099609375
478.818,-0.05322265625
478.828,0.052490234375
478.838,0.1630859375
478.848,0.226318359375
478.858,0.2177734375
478.868,0.162841796875
478.878,0.10699462890625
478.888,0.06866455078125
478.898,0.0263214111328125
478.908,-0.0401611328125
478.918,-0.1116943359375
478.928,-0.1519775390625
478.938,-0.15234375
478.948,-0.1309814453125
478.952,0.1871337890625
478.962,0.1533203125
478.972,0.09375
478.982,0.0469970703125
478.992,0.00994873046875
479.002,-0.035369873046875
479.012,-0.0799560546875
479.022,-0.0982666015625
479.032,-0.087158203125
479.042,-0.0693359375
479.052,-0.060272216796875
479.062,-0.051025390625
479.072,-0.031219482421875
479.082,-0.00748443603515625
479.092,0.00750732421875
479.102,0.0089569091796875
479.111,0.000635147094726562
479.121,-0.00836181640625
479.131,-0.00830841064453125
479.141,-0.00177669525146484
479.151,-0.00391387939453125
479.161,-0.0191802978515625
479.171,-0.037933349609375
479.181,-0.055267333984375
479.191,-0.0709228515625
479.201,-0.08306884765625
479.211,-0.09185791015625
479.221,-0.09814453125
479.231,-0.101318359375
479.241,-0.1016845703125
479.251,-0.10107421875
479.261,-0.0985107421875
479.271,-0.0880126953125
479.281,-0.06744384765625
479.291,-0.0496826171875
479.301,-0.051422119140625
479.309,-0.07025146484375
479.319,-0.0855712890625
479.329,-0.085693359375
479.339,-0.07720947265625
479.349,-0.06683349609375
479.359,-0.051849365234375
479.369,-0.0308074951171875
479.379,-0.0092315673828125
479.389,0.00663375854492188
479.399,0.0113067626953125
479.409,-0.00640106201171875
479.419,-0.05621337890625
479.429,-0.1275634765625
479.439,-0.1976318359375
479.449,-0.2509765625
479.459,-0.274658203125
479.469,-0.2529296875
479.479,-0.1787109375
479.489,-0.0616455078125
479.499,0.072021484375
479.508,0.1890869140625
479.518,0.26171875
479.528,0.281494140625
479.538,0.258056640625
479.548,0.2061767578125
479.558,0.14453125
479.568,0.0966796875
479.578,0.0787353515625
479.588,0.08953857421875
479.598,0.11651611328125
479.608,0.1484375
479.618,0.179443359375
479.628,0.1988525390625
479.638,0.191650390625
479.648,0.153564453125
479.658,0.09649658203125
479.668,0.033935546875
479.678,-0.02880859375
479.688,-0.08770751953125
479.698,-0.1329345703125
479.703,0.059112548828125
479.713,0.08624267578125
479.723,0.07806396484375
479.733,0.04632568359375
479.743,0.00561904907226562
479.753,-0.033905029296875
479.763,-0.06524658203125
479.773,-0.0814208984375
479.783,-0.0794677734375
479.793,-0.062225341796875
479.803,-0.029296875
479.813,0.022674560546875
479.823,0.08502197265625
479.833,0.1387939453125
479.843,0.1693115234375
479.853,0.1697998046875
479.861,0.141357421875
479.871,0.0947265625
479.881,0.043670654296875
479.891,-0.0039825439453125
479.901,-0.047882080078125
479.911,-0.08740234375
479.921,-0.1165771484375
479.931,-0.1256103515625
479.941,-0.10479736328125
479.951,-0.051025390625
479.961,0.029632568359375
479.971,0.12744140625
479.981,0.2266845703125
479.991,0.302001953125
480.001,0.330322265625
480.011,0.304443359375
480.021,0.237060546875
480.031,0.14892578125
480.041,0.057220458984375
480.051,-0.0245361328125
480.059,-0.0863037109375
480.069,-0.12353515625
480.079,-0.137451171875
480.089,-0.133056640625
480.099,-0.1146240234375
480.109,-0.08367919921875
480.119,-0.043487548828125
480.129,-0.00133037567138672
480.139,0.032012939453125
480.149,0.04766845703125
480.159,0.041351318359375
480.169,0.0137557983398438
480.179,-0.02685546875
480.189,-0.0662841796875
480.199,-0.09375
480.209,-0.104736328125
480.219,-0.096923828125
480.229,-0.07470703125
480.239,-0.05206298828125
480.249,-0.040252685546875
480.258,-0.037506103515625
480.268,-0.033538818359375
480.278,-0.0204620361328125
480.288,0.0022125244140625
480.298,0.02685546875
480.308,0.0421142578125
480.318,0.045196533203125
480.328,0.0438232421875
480.338,0.04144287109375
480.348,0.033905029296875
480.358,0.02392578125
480.368,0.0229644775390625
480.378,0.034210205078125
480.388,0.04888916015625
480.398,0.058868408203125
480.408,0.060699462890625
480.418,0.051177978515625
480.428,0.0285186767578125
480.438,-0.00427627563476562
480.448,-0.040924072265625
480.452,-0.0751953125
480.462,-0.040252685546875
480.472,-0.0115203857421875
480.482,0.00680160522460938
480.492,0.0147552490234375
480.502,0.00919342041015625
480.512,-0.0086822509765625
480.522,-0.028656005859375
480.532,-0.0400390625
480.542,-0.03778076171875
480.552,-0.0230560302734375
480.562,-0.00228691101074219
480.572,0.0150299072265625
480.582,0.020477294921875
480.592,0.0127182006835938
480.602,-0.000641345977783203
480.611,-0.0105438232421875
480.621,-0.0119552612304688
480.631,-0.000278234481811523
480.641,0.0285491943359375
480.651,0.0709228515625
480.661,0.1124267578125
480.671,0.1343994140625
480.681,0.12841796875
480.691,0.09808349609375
480.701,0.04815673828125
480.711,-0.0189208984375
480.721,-0.0960693359375
480.731,-0.171630859375
480.741,-0.23681640625
480.751,-0.28369140625
480.761,-0.297607421875
480.771,-0.265380859375
480.781,-0.1878662109375
480.791,-0.0838623046875
480.801,0.0195159912109375
480.809,0.095947265625
480.819,0.1304931640625
480.829,0.12335205078125
480.839,0.0814208984375
480.849,0.0141448974609375
480.859,-0.0657958984375
480.869,-0.1435546875
480.879,-0.2071533203125
480.889,-0.251220703125
480.899,-0.276123046875
480.909,-0.283203125
480.919,-0.2724609375
480.929,-0.2462158203125
480.939,-0.209228515625
480.949,-0.1640625
480.959,-0.1177978515625
480.969,-0.07928466796875
480.979,-0.049285888671875
480.989,-0.0250091552734375
480.999,-0.00625228881835938
481.008,0.00536346435546875
481.018,0.00841522216796875
481.028,0.00472640991210938
481.038,-0.00364494323730469
481.048,-0.016693115234375
481.058,-0.033477783203125
481.068,-0.05328369140625
481.078,-0.07427978515625
481.088,-0.0897216796875
481.098,-0.09674072265625
481.108,-0.101318359375
481.118,-0.10687255859375
481.128,-0.11138916015625
481.138,-0.113037109375
481.148,-0.107666015625
481.158,-0.09124755859375
481.168,-0.0677490234375
481.178,-0.046112060546875
481.188,-0.036651611328125
481.198,-0.0465087890625
481.202,-0.1468505859375
481.212,-0.1324462890625
481.222,-0.1112060546875
481.232,-0.08612060546875
481.242,-0.055633544921875
481.252,-0.0286712646484375
481.262,-0.01611328125
481.272,-0.0156707763671875
481.282,-0.0207366943359375
481.292,-0.0297393798828125
481.302,-0.035736083984375
481.312,-0.0282440185546875
481.322,-0.0133514404296875
481.332,-0.0090484619140625
481.342,-0.0182952880859375
481.352,-0.02618408203125
481.361,-0.0218353271484375
481.371,-0.00913238525390625
481.381,0.00452804565429688
481.391,0.01849365234375
481.401,0.0267181396484375
481.411,0.00670242309570312
481.421,-0.056884765625
481.431,-0.142333984375
481.441,-0.208251953125
481.451,-0.2386474609375
481.461,-0.250244140625
481.471,-0.260986328125
481.481,-0.268798828125
481.491,-0.264892578125
481.501,-0.254150390625
481.511,-0.2491455078125
481.521,-0.241943359375
481.531,-0.197021484375
481.541,-0.087646484375
481.551,0.06561279296875
481.559,0.2080078125
481.569,0.295166015625
481.579,0.311279296875
481.589,0.2529296875
481.599,0.1219482421875
481.609,-0.06500244140625
481.619,-0.275146484375
481.629,-0.468505859375
481.639,-0.6064453125
481.649,-0.6640625
481.659,-0.6396484375
481.669,-0.556640625
481.679,-0.46044921875
481.689,-0.395751953125
481.699,-0.36962890625
481.709,-0.3466796875
481.719,-0.2880859375
481.729,-0.1915283203125
481.739,-0.08123779296875
481.749,0.02569580078125
481.758,0.125
481.768,0.2081298828125
481.778,0.250732421875
481.788,0.2164306640625
481.798,0.089111328125
481.808,-0.10546875
481.818,-0.315673828125
481.828,-0.485107421875
481.838,-0.5703125
481.848,-0.556640625
481.858,-0.4619140625
481.868,-0.33349609375
481.878,-0.2281494140625
481.888,-0.1800537109375
481.898,-0.1898193359375
481.908,-0.2369384765625
481.918,-0.29052734375
481.928,-0.316162109375
481.938,-0.2861328125
481.948,-0.2008056640625
481.952,-0.040496826171875
481.962,-0.1636962890625
481.972,-0.31005859375
481.982,-0.442626953125
481.992,-0.52783203125
482.002,-0.5478515625
482.012,-0.5068359375
482.022,-0.4248046875
482.032,-0.3203125
482.042,-0.20947265625
482.052,-0.1055908203125
482.062,-0.018798828125
482.072,0.045013427734375
482.082,0.0789794921875
482.092,0.07489013671875
482.102,0.02679443359375
482.111,-0.06634521484375
482.121,-0.195068359375
482.131,-0.3349609375
482.141,-0.4541015625
482.151,-0.5205078125
482.161,-0.51123046875
482.171,-0.426025390625
482.181,-0.293701171875
482.191,-0.1553955078125
482.201,-0.0467529296875
482.211,0.00612640380859375
482.221,-0.00415420532226562
482.231,-0.0645751953125
482.241,-0.152099609375
482.251,-0.2364501953125
482.261,-0.281005859375
482.271,-0.26318359375
482.281,-0.18505859375
482.291,-0.06256103515625
482.301,0.08038330078125
482.309,0.214111328125
482.319,0.311767578125
482.329,0.354248046875
482.339,0.329833984375
482.349,0.237548828125
482.359,0.08978271484375
482.369,-0.0892333984375
482.379,-0.262939453125
482.389,-0.394775390625
482.399,-0.4619140625
482.409,-0.4580078125
482.419,-0.386962890625
482.429,-0.26806640625
482.439,-0.1265869140625
482.449,0.0155029296875
482.459,0.135986328125
482.469,0.21142578125
482.479,0.219482421875
482.489,0.1436767578125
482.499,-0.00868988037109375
482.508,-0.2037353515625
482.518,-0.4072265625
482.528,-0.59521484375
482.538,-0.748046875
482.548,-0.85400390625
482.558,-0.9111328125
482.568,-0.91943359375
482.578,-0.884765625
482.588,-0.81396484375
482.598,-0.70947265625
482.608,-0.57470703125
482.618,-0.4189453125
482.628,-0.252685546875
482.638,-0.08551025390625
482.648,0.07061767578125
482.658,0.2000732421875
482.668,0.28125
482.678,0.290283203125
482.688,0.2220458984375
482.698,0.10064697265625
482.703,-0.2646484375
482.713,-0.26953125
482.723,-0.35205078125
482.733,-0.5078125
482.743,-0.66845703125
482.753,-0.76806640625
482.763,-0.74853515625
482.773,-0.57421875
482.783,-0.26025390625
482.793,0.1473388671875
482.803,0.5751953125
482.813,0.91943359375
482.823,1.095703125
482.833,1.06640625
482.843,0.81591796875
482.853,0.36279296875
482.86,-0.1734619140625
482.87,-0.58984375
482.88,-0.7265625
482.89,-0.56982421875
482.9,-0.2113037109375
482.91,0.225830078125
482.92,0.61474609375
482.93,0.87646484375
482.94,1.0146484375
482.95,1.0703125
482.96,1.05078125
482.97,0.95849609375
482.98,0.84130859375
482.99,0.7294921875
483,0.57421875
483.01,0.319580078125
483.02,-0.033477783203125
483.03,-0.436767578125
483.04,-0.7939453125
483.05,-0.99853515625
483.059,-1.005859375
483.069,-0.8544921875
483.079,-0.634765625
483.089,-0.436279296875
483.099,-0.307861328125
483.109,-0.2471923828125
483.119,-0.210693359375
483.129,-0.1488037109375
483.139,-0.059600830078125
483.149,-0.00829315185546875
483.159,-0.08837890625
483.169,-0.344970703125
483.179,-0.7001953125
483.189,-0.96826171875
483.199,-0.98974609375
483.209,-0.75634765625
483.219,-0.36572265625
483.229,0.08660888671875
483.239,0.5107421875
483.249,0.7861328125
483.258,0.8154296875
483.268,0.5927734375
483.278,0.214599609375
483.288,-0.1717529296875
483.298,-0.4453125
483.308,-0.55224609375
483.318,-0.495361328125
483.328,-0.32861328125
483.338,-0.1304931640625
483.348,0.04296875
483.358,0.1788330078125
483.368,0.27978515625
483.378,0.330810546875
483.388,0.298828125
483.398,0.1611328125
483.408,-0.0638427734375
483.418,-0.31787109375
483.428,-0.53173828125
483.438,-0.650390625
483.448,-0.6435546875
483.453,0.12255859375
483.463,0.14453125
483.473,0.052825927734375
483.483,-0.17333984375
483.493,-0.5078125
483.503,-0.87255859375
483.513,-1.1708984375
483.523,-1.3310546875
483.533,-1.33203125
483.543,-1.203125
483.553,-1.0205078125
483.563,-0.86474609375
483.573,-0.7802734375
483.583,-0.76806640625
483.593,-0.8095703125
483.603,-0.8740234375
483.61,-0.923828125
483.62,-0.93212890625
483.63,-0.90283203125
483.64,-0.85400390625
483.65,-0.79638671875
483.66,-0.73193359375
483.67,-0.681640625
483.68,-0.67578125
483.69,-0.72021484375
483.7,-0.7958984375
483.71,-0.88671875
483.72,-0.97607421875
483.73,-1.0361328125
483.74,-1.052734375
483.75,-1.0380859375
483.76,-1.015625
483.77,-0.98828125
483.78,-0.95703125
483.79,-0.92919921875
483.8,-0.90673828125
483.809,-0.8916015625
483.819,-0.88818359375
483.829,-0.89599609375
483.839,-0.9013671875
483.849,-0.89111328125
483.859,-0.85498046875
483.869,-0.791015625
483.879,-0.70947265625
483.889,-0.62744140625
483.899,-0.5634765625
483.909,-0.5302734375
483.919,-0.52880859375
483.929,-0.5517578125
483.939,-0.5947265625
483.949,-0.6533203125
483.959,-0.72509765625
483.969,-0.80810546875
483.979,-0.8935546875
483.989,-0.9638671875
483.999,-1.0029296875
484.008,-1.00390625
484.018,-0.96484375
484.028,-0.8984375
484.038,-0.82763671875
484.048,-0.77001953125
484.058,-0.73388671875
484.068,-0.72265625
484.078,-0.73486328125
484.088,-0.76220703125
484.098,-0.78955078125
484.108,-0.80908203125
484.118,-0.82275390625
484.128,-0.828125
484.138,-0.82080078125
484.148,-0.80224609375
484.158,-0.77294921875
484.168,-0.7353515625
484.178,-0.6884765625
484.188,-0.6337890625
484.198,-0.572265625
484.203,-0.50537109375
484.213,-0.58935546875
484.223,-0.68896484375
484.233,-0.77783203125
484.243,-0.83203125
484.253,-0.84423828125
484.263,-0.82568359375
484.273,-0.7978515625
484.283,-0.77734375
484.293,-0.771484375
484.303,-0.7705078125
484.313,-0.7451171875
484.323,-0.67578125
484.333,-0.5712890625
484.343,-0.459716796875
484.353,-0.369873046875
484.36,-0.322021484375
484.37,-0.313232421875
484.38,-0.322998046875
484.39,-0.334716796875
484.4,-0.341064453125
484.41,-0.336181640625
484.42,-0.31494140625
484.43,-0.274658203125
484.44,-0.2176513671875
484.45,-0.1522216796875
484.46,-0.09381103515625
484.47,-0.057891845703125
484.48,-0.045745849609375
484.49,-0.04620361328125
484.5,-0.054443359375
484.51,-0.07196044921875
484.52,-0.08966064453125
484.53,-0.09088134765625
484.54,-0.0682373046875
484.55,-0.0240325927734375
484.559,0.036285400390625
484.569,0.095458984375
484.579,0.12347412109375
484.589,0.099853515625
484.599,0.0294647216796875
484.609,-0.06256103515625
484.619,-0.14501953125
484.629,-0.1968994140625
484.639,-0.218017578125
484.649,-0.22021484375
484.659,-0.213134765625
484.669,-0.199462890625
484.679,-0.1763916015625
484.689,-0.138916015625
484.699,-0.086181640625
484.709,-0.0265655517578125
484.719,0.02227783203125
484.729,0.04486083984375
484.739,0.041595458984375
484.749,0.0283660888671875
484.758,0.0200958251953125
484.768,0.0194091796875
484.778,0.018341064453125
484.788,0.000403642654418945
484.798,-0.055023193359375
484.808,-0.1534423828125
484.818,-0.2734375
484.828,-0.382568359375
484.838,-0.455322265625
484.848,-0.47021484375
484.858,-0.41455078125
484.868,-0.296142578125
484.878,-0.1429443359375
484.888,0.00905609130859375
484.898,0.12457275390625
484.908,0.17724609375
484.918,0.162841796875
484.928,0.09356689453125
484.938,-0.0161590576171875
484.948,-0.1485595703125
484.952,-0.37451171875
484.962,-0.253173828125
484.972,-0.08685302734375
484.982,0.11151123046875
484.992,0.30712890625
485.002,0.445556640625
485.012,0.484619140625
485.022,0.415283203125
485.032,0.25927734375
485.042,0.05877685546875
485.052,-0.1309814453125
485.062,-0.255615234375
485.072,-0.289306640625
485.082,-0.2451171875
485.092,-0.155517578125
485.102,-0.045654296875
485.11,0.06884765625
485.12,0.17138671875
485.13,0.2452392578125
485.14,0.275634765625
485.15,0.2454833984375
485.16,0.1458740234375
485.17,-0.00169849395751953
485.18,-0.15234375
485.19,-0.26953125
485.2,-0.33935546875
485.21,-0.354248046875
485.22,-0.3076171875
485.23,-0.2099609375
485.24,-0.09393310546875
485.25,0.00665283203125
485.26,0.073486328125
485.27,0.09765625
485.28,0.0745849609375
485.29,0.0117263793945312
485.3,-0.0714111328125
485.309,-0.1575927734375
485.319,-0.23779296875
485.329,-0.29833984375
485.339,-0.318115234375
485.349,-0.28857421875
485.359,-0.2244873046875
485.369,-0.14501953125
485.379,-0.061431884765625
485.389,0.0147552490234375
485.399,0.061370849609375
485.409,0.053741455078125
485.419,-0.014892578125
485.429,-0.12432861328125
485.439,-0.2374267578125
485.449,-0.318603515625
485.459,-0.34814453125
485.469,-0.3251953125
485.479,-0.265380859375
485.489,-0.1920166015625
485.499,-0.1209716796875
485.508,-0.054534912109375
485.518,0.007354736328125
485.528,0.0521240234375
485.538,0.05560302734375
485.548,0.00506591796875
485.558,-0.08306884765625
485.568,-0.1822509765625
485.578,-0.28369140625
485.588,-0.3876953125
485.598,-0.477783203125
485.608,-0.517578125
485.618,-0.482666015625
485.628,-0.389404296875
485.638,-0.2744140625
485.648,-0.1580810546875
485.658,-0.047821044921875
485.668,0.04229736328125
485.678,0.0977783203125
485.688,0.1158447265625
485.698,0.09185791015625
485.703,-0.2335205078125
485.713,-0.2059326171875
485.723,-0.1590576171875
485.733,-0.09906005859375
485.743,-0.04156494140625
485.753,-0.0131607055664062
485.763,-0.036956787109375
485.773,-0.1209716796875
485.783,-0.25390625
485.793,-0.403564453125
485.803,-0.5302734375
485.813,-0.6142578125
485.823,-0.6591796875
485.833,-0.67041015625
485.843,-0.6513671875
485.853,-0.60498046875
485.86,-0.5322265625
485.87,-0.4443359375
485.88,-0.360595703125
485.89,-0.296875
485.9,-0.25830078125
485.91,-0.2401123046875
485.92,-0.229248046875
485.93,-0.212158203125
485.94,-0.185302734375
485.95,-0.15673828125
485.96,-0.1348876953125
485.97,-0.11993408203125
485.98,-0.10772705078125
485.99,-0.09613037109375
486,-0.07965087890625
486.01,-0.048095703125
486.02,-0.00017702579498291
486.03,0.04534912109375
486.04,0.0626220703125
486.05,0.04345703125
486.059,-0.00201416015625
486.069,-0.0679931640625
486.079,-0.1611328125
486.089,-0.284423828125
486.099,-0.409423828125
486.109,-0.4609375
486.119,-0.35693359375
486.129,-0.0831298828125
486.139,0.273193359375
486.149,0.56640625
486.159,0.677734375
486.169,0.583984375
486.179,0.3544921875
486.189,0.09326171875
486.199,-0.132568359375
486.209,-0.305908203125
486.219,-0.41748046875
486.229,-0.4287109375
486.239,-0.29736328125
486.249,-0.049896240234375
486.258,0.1881103515625
486.268,0.28515625
486.278,0.2061767578125
486.288,0.0120391845703125
486.298,-0.178955078125
486.308,-0.2269287109375
486.318,-0.0299530029296875
486.328,0.394287109375
486.338,0.86181640625
486.348,1.1015625
486.358,0.951171875
486.368,0.488525390625
486.378,-0.037567138671875
486.388,-0.405517578125
486.398,-0.5283203125
486.408,-0.42529296875
