Time,GyroX
489.293,24.8800010681152
489.303,29.3300018310547
489.313,28.4500007629395
489.323,19.0400009155273
489.333,21.0700016021729
489.343,-17.1800003051758
489.353,-4.55000019073486
489.363,21.5200004577637
489.373,9.52000045776367
489.383,-2.48000001907349
489.393,-2.52000021934509
489.403,-8.32999992370605
489.418,12.2100009918213
489.428,19.3900012969971
489.438,7.80000019073486
489.448,-10.9500007629395
489.458,-7.73000049591064
489.468,10.5000009536743
489.478,21.6600017547607
489.488,20.4400005340576
489.498,1.92000007629395
489.508,-7.03000020980835
489.518,16.2700004577637
489.528,28.980001449585
489.538,5.49000024795532
489.548,14.3500003814697
489.558,20.7200012207031
489.568,24.4300003051758
489.578,15.8900003433228
489.588,-7.07000017166138
489.598,2.38000011444092
489.608,21.0300006866455
489.616,20.0900001525879
489.626,7.14000034332275
489.636,-5.95000028610229
489.646,-13.7500009536743
489.656,-12.3200006484985
489.666,20.7200012207031
489.676,25.5100021362305
489.686,-6.82000017166138
489.696,-37.1700019836426
489.706,-29.8500022888184
489.716,5.84000015258789
489.726,47.7700004577637
489.736,12.9800004959106
489.746,-4.55000019073486
489.756,4.93000030517578
489.766,33.9800033569336
489.776,17.2900009155273
489.786,22.5000019073486
489.796,-17.2900009155273
489.806,-14.7700004577637
489.815,31.0400009155273
489.825,22.0500011444092
489.835,-6.65000009536743
489.845,-35.3800010681152
489.855,-22.5400009155273
489.865,14.4200010299683
489.875,31.5300006866455
489.885,31.7100009918213
489.895,8.78000068664551
489.905,31.2500019073486
489.915,33.6000022888184
489.925,31.1100006103516
489.935,0.520000040531158
489.945,14.6300010681152
489.955,12.0700006484985
489.965,5.53000020980835
489.975,3.50000023841858
489.985,-6.26000022888184
489.995,-10.3200006484985
490.005,7.24000024795532
490.009,23.060001373291
490.019,17.4300003051758
490.029,20.3000011444092
490.039,18.3700008392334
490.049,17.5
490.059,29.4300022125244
490.069,9.24000072479248
490.079,7.80000019073486
490.089,27.8600006103516
490.099,9.97000026702881
490.109,-3.3600001335144
490.119,10.0100002288818
490.129,9.55000019073486
490.139,17.25
490.149,10.9200000762939
490.159,-29.7800006866455
490.167,-24.8800010681152
490.177,-15.8500003814697
490.187,2.55000019073486
490.197,10.2900009155273
490.207,-12.7400007247925
490.217,25.2000007629395
490.227,51.5500030517578
490.237,59.2900009155273
490.247,76.1600036621094
490.257,64.9900054931641
490.267,57.2200012207031
490.277,57.1900024414062
490.287,43.4300003051758
490.297,-30.5900020599365
490.307,-46.370002746582
490.317,-22.6400012969971
490.327,-21.310001373291
490.337,1.22000002861023
490.347,0.100000001490116
490.357,2.45000004768372
490.366,10.0800008773804
490.376,20.7900009155273
490.386,24.0800018310547
490.396,11.5100002288818
490.406,13.1600008010864
490.416,8.68000030517578
490.426,-20.3700008392334
490.436,-24.4600009918213
490.446,-4.20000028610229
490.456,11.3700008392334
490.466,-18.5500011444092
490.476,-5.42000007629395
490.486,-5.14000034332275
490.496,17.3600006103516
490.506,36.7800025939941
490.516,30.060001373291
490.526,12.0000009536743
490.536,11.3000001907349
490.546,28.7700004577637
490.556,27.8600006103516
490.565,35.5200004577637
490.575,11.5500001907349
490.585,19.4600009918213
490.595,35.1000022888184
490.605,42.8000030517578
490.615,77.8000030517578
490.625,105.000007629395
490.635,123.76000213623
490.645,128.620010375977
490.655,119.310005187988
490.665,99.890007019043
490.675,68.7700042724609
490.685,42.2400016784668
490.695,32.4099998474121
490.705,55.8200035095215
490.715,81.4400024414062
490.725,98.1700057983398
490.735,114.900009155273
490.745,127.260009765625
490.755,116.410003662109
490.759,-6.51000022888184
490.769,-45.0800018310547
490.779,-64.6100006103516
490.789,-95.5100021362305
490.799,-118.370002746582
490.809,-113.540008544922
490.819,-93.7300033569336
490.829,-75.6700057983398
490.839,-59.9200019836426
490.849,-40.1800003051758
490.859,-50.3600006103516
490.869,-47.8400039672852
490.879,-15.6400003433228
490.889,-2.94000005722046
490.899,-2.27000021934509
490.909,-17.5
490.917,-38.5700035095215
490.927,-35.6300010681152
490.937,-51.3800010681152
490.947,-73.5
490.957,-58.4800033569336
490.967,-54.6000022888184
490.977,-55.3000030517578
490.987,-28.560001373291
490.997,-19.4200000762939
491.007,-14.8000011444092
491.017,21.4200000762939
491.027,56.9400024414062
491.037,67.8600006103516
491.047,69.4700012207031
491.057,44.2400016784668
491.067,28.1400012969971
491.077,42.9800033569336
491.087,20.3000011444092
491.097,-16.4099998474121
491.107,-30.5900020599365
491.116,-35.310001373291
491.126,-48.0900039672852
491.136,-74.5800018310547
491.146,-106.960006713867
491.156,-124.740005493164
491.166,-111.020004272461
491.176,-82.390007019043
491.186,-53.6900024414062
491.196,-25.6500015258789
491.206,3.74000024795532
491.216,32.2300033569336
491.226,59.0100021362305
491.236,84.5600051879883
491.246,106.710006713867
491.256,108.880004882812
491.266,121.480003356934
491.276,135.100006103516
491.286,125.510009765625
491.296,112.450004577637
491.306,113.610008239746
491.315,101.080001831055
491.325,85.0500030517578
491.335,87.3600006103516
491.345,88.5800018310547
491.355,87.0800018310547
491.365,96.8400039672852
491.375,110.140007019043
491.385,109.370002746582
491.395,95.2300033569336
491.405,73.7100067138672
491.415,53.4800033569336
491.425,60.8300018310547
491.435,76.4000015258789
491.445,81.1600036621094
491.455,97.0900039672852
491.465,108.320007324219
491.475,103.630004882812
491.485,117.770004272461
491.495,103.490005493164
491.505,56.8400039672852
491.509,-71.5699996948242
491.519,-65.5900039672852
491.529,-34.3000030517578
491.539,-19.980001449585
491.549,-25.230001449585
491.559,-7.45000028610229
491.569,22.3300018310547
491.579,40.7700004577637
491.589,61.3200035095215
491.599,51.4500007629395
491.609,9.13000011444092
491.619,6.23000049591064
491.629,9.52000045776367
491.639,-6.6100001335144
491.649,-28.4900016784668
491.659,-48.7900009155273
491.667,-70.7300033569336
491.677,-45.4600028991699
491.687,-14.2400007247925
491.697,-3.85000014305115
491.707,26.4600009918213
491.717,51.9400024414062
491.727,41.6100006103516
491.737,37.870002746582
491.747,32.9000015258789
491.757,19
491.767,45.1100006103516
491.777,65.6600036621094
491.787,69.4000015258789
491.797,92.8500061035156
491.807,128.660003662109
491.817,147.139999389648
491.827,165.900009155273
491.837,157.570007324219
491.847,121.590003967285
491.857,90.6100006103516
491.866,59.810001373291
491.876,35.9400024414062
491.886,5.35000038146973
491.896,-43.5400009155273
491.906,-92.0800018310547
491.916,-136.710006713867
491.926,-154.490005493164
491.936,-157.220001220703
491.946,-132.470001220703
491.956,-87.2900009155273
491.966,-35.7700004577637
491.976,35.2800025939941
491.986,82.2800064086914
491.996,83.7500076293945
492.006,80.9900054931641
492.016,60.5100021362305
492.026,23.1300010681152
492.036,-7.66000032424927
492.046,-64.75
492.056,-100.660003662109
492.065,-89.7000045776367
492.075,-68.5300064086914
492.085,-43.1500015258789
492.095,-19.4600009918213
492.105,-2.83000016212463
492.115,8.64000034332275
492.125,28.5200004577637
492.135,34.0500030517578
492.145,38.6000022888184
492.155,45.9900016784668
492.165,67.7600021362305
492.175,99.4000015258789
492.185,126.700004577637
492.195,139.540008544922
492.205,112.910003662109
492.215,51.8000030517578
492.225,23.6900005340576
492.235,-8.07999992370605
492.245,14.0700006484985
492.255,65.8000030517578
492.259,-29.2600021362305
492.269,3.74000024795532
492.279,14.1000003814697
492.289,-38.2200012207031
492.299,-90.7900009155273
492.309,-161.210006713867
492.319,-214.760009765625
492.329,-211.080017089844
492.339,-188.580001831055
492.349,-145.980010986328
492.359,-143.670013427734
492.369,-109.76000213623
492.379,-72.4100036621094
492.389,-48.3000030517578
492.399,-11.0200004577637
492.409,17.8800010681152
492.417,42.9800033569336
492.427,64.6800003051758
492.437,68.8800048828125
492.447,63.1700019836426
492.457,8.36000061035156
492.467,-18.1600017547607
492.477,-24.7100009918213
492.487,-3.29000020027161
492.497,71.3300018310547
492.507,136.950012207031
492.517,192.250015258789
492.527,262.080017089844
492.537,310.450012207031
492.547,308.700012207031
492.557,302.330017089844
492.567,374.290008544922
492.577,432.880035400391
492.587,412.540008544922
492.597,342.860015869141
492.607,274.960021972656
492.616,188.440002441406
492.626,150.040008544922
492.636,60.930004119873
492.646,-65.0300064086914
492.656,-131.460006713867
492.666,-133.630004882812
492.676,-180.420013427734
492.686,-228.230010986328
492.696,-226.520004272461
492.706,-246.920013427734
492.716,-196.490005493164
492.726,-158.830001831055
492.736,-125.470008850098
492.746,-78.9900054931641
492.756,-51.7300033569336
492.766,5.70000028610229
492.776,40.6300010681152
492.786,61.1100044250488
492.796,89.4600067138672
492.806,123.620002746582
492.815,149.620010375977
492.825,165.580001831055
492.835,145.040008544922
492.845,104.51000213623
492.855,62.680004119873
492.865,-23.5500011444092
492.875,-112.140007019043
492.885,-172.790008544922
492.895,-206.110015869141
492.905,-202.510009765625
492.915,-168.660003662109
492.925,-126.450004577637
492.935,-79.5200042724609
492.945,-13.0900001525879
492.955,33.1400032043457
492.965,71.9600067138672
492.975,113.470008850098
492.985,120.050003051758
492.995,118.820007324219
493.005,122.600006103516
493.009,93.8000030517578
493.019,112.490005493164
493.029,117.740005493164
493.039,100.100006103516
493.049,72.4100036621094
493.059,27.8900012969971
493.069,0.280000001192093
493.079,-20.230001449585
493.089,-43.6100006103516
493.099,-49.5200004577637
493.109,-42.310001373291
493.119,-5.25000047683716
493.129,-2.83000016212463
493.139,3.60000014305115
493.149,9.38000011444092
493.159,20.8200016021729
493.167,-13.7500009536743
493.177,-40.0400009155273
493.187,-96.8800048828125
493.197,-168.490005493164
493.207,-166.980010986328
493.217,-172.720001220703
493.227,-173.530014038086
493.237,-103.350006103516
493.247,-45.3600006103516
493.257,24.5000019073486
493.267,73.8800048828125
493.277,120.850006103516
493.287,137.34001159668
493.297,142.940002441406
493.307,111.120002746582
493.317,76.0900039672852
493.327,83.6100006103516
493.337,93.6900024414062
493.347,79.2700042724609
493.357,72.8300018310547
493.366,49.870002746582
493.376,27.3700008392334
493.386,27.4000015258789
493.396,3.67000007629395
493.406,-23.0300006866455
493.416,-15.8500003814697
493.426,0.380000025033951
493.436,40.3500022888184
493.446,61.7400016784668
493.456,20.0900001525879
493.466,-6.40000009536743
493.476,-5.35000038146973
493.486,-10.8100004196167
493.496,-22.0100002288818
493.506,-27.7200012207031
493.516,-33.1400032043457
493.526,-14.0300006866455
493.536,23.2700004577637
493.546,36.6100006103516
493.556,55.4400024414062
493.565,91.2800064086914
493.575,78.9900054931641
493.585,77.8000030517578
493.595,71.5400009155273
493.605,47.3900032043457
493.615,39.5500030517578
493.625,25.0200004577637
493.635,-11.5800008773804
493.645,-18.0900001525879
493.655,-11.4800004959106
493.665,-32.7600021362305
493.675,-49.8000030517578
493.685,-50.6400032043457
493.695,-42.9100036621094
493.705,-32.370002746582
493.715,-25.7600021362305
493.725,-2.69000005722046
493.735,18.0900001525879
493.745,38.8800010681152
493.755,51.870002746582
493.759,32.9300003051758
493.769,38.6000022888184
493.779,27.7200012207031
493.789,26.9500007629395
493.799,46.2700004577637
493.809,60.1300010681152
493.819,65.2400054931641
493.829,55.0900039672852
493.839,39.3000030517578
493.849,-32.4099998474121
493.859,-50.680004119873
493.869,-1.15000009536743
493.879,-23.310001373291
493.889,-66.1800003051758
493.899,-52.0400009155273
493.909,-97.3000030517578
493.917,-72.3800048828125
493.927,-44.0300025939941
493.937,-105.17000579834
493.947,-70.2100067138672
493.957,34.7200012207031
493.967,121.340003967285
493.977,154.210006713867
493.987,117.42000579834
493.997,98.3800048828125
494.007,132.050003051758
494.017,79.4100036621094
494.027,52.6000022888184
494.037,-4.76000022888184
494.047,0.310000002384186
494.057,-44.2700004577637
494.067,-87.6700057983398
494.077,-61.4200019836426
494.087,-46.0200004577637
494.097,3.85000014305115
494.107,-11.2000007629395
494.116,-11.3700008392334
494.126,-1.57000005245209
494.136,-19.980001449585
494.146,-1.47000002861023
494.156,13.8900003433228
494.166,-52.180004119873
494.176,-63.7000045776367
494.186,-7.4200005531311
494.196,26.4200019836426
494.206,-0.980000019073486
494.216,-33.7400016784668
494.226,-18.8600006103516
494.236,32.060001373291
494.246,57.2900009155273
494.256,21.6300010681152
494.266,35.870002746582
494.276,55.0200042724609
494.286,60.620002746582
494.296,62.2300033569336
494.306,24.5300006866455
494.311,19.8400001525879
494.321,-45.0800018310547
494.331,-39.6500015258789
494.341,9.66000080108643
494.351,30.6600017547607
494.361,15.8500003814697
494.371,-48.7500038146973
494.381,-39.9700012207031
494.391,-26.4200019836426
494.401,-7.84000015258789
494.411,4.62000036239624
494.421,15.5400009155273
494.431,56.5900039672852
494.441,42.7000007629395
494.451,-34.0900001525879
494.461,7.45000028610229
494.468,85.9200057983398
494.478,58.620002746582
494.488,-4.13000011444092
494.498,-42.0700035095215
494.508,-19.2100009918213
494.518,29.0800018310547
494.528,29.9600009918213
494.538,-6.37000036239624
494.548,5.14000034332275
494.558,20.0500011444092
494.568,41.370002746582
494.578,29.5000019073486
494.588,-24.6400012969971
494.598,-19.6700000762939
494.608,-2.31000018119812
494.618,-11.0200004577637
494.628,-2.34000015258789
494.638,1.36000001430511
494.648,-3.60000014305115
494.658,17.1100006103516
494.667,20.1200008392334
494.677,12.3200006484985
494.687,-1.08000004291534
494.697,-2.94000005722046
494.707,33.3900032043457
494.717,57.3600044250488
494.727,22.6800003051758
494.737,-13.0500001907349
494.747,-4.13000011444092
494.757,9.73000049591064
494.767,6.37000036239624
494.777,-14.4500007629395
494.787,-27.8200016021729
494.797,9.27000045776367
494.807,7.87000036239624
494.817,10.0800008773804
494.827,8.47000026702881
494.837,2.66000008583069
494.847,26.2500019073486
494.857,21.9100017547607
494.866,16.2400016784668
494.876,17.5700016021729
494.886,1.29000008106232
494.896,12.4600009918213
494.906,13.6100006103516
494.916,6.40000009536743
494.926,6.51000022888184
494.936,2.69000005722046
494.946,-8.5
494.956,5.04000043869019
494.966,8.57000064849854
494.976,15.7100009918213
494.986,17.9900016784668
494.996,-0.840000033378601
495.006,7.63000059127808
495.016,19.9500007629395
495.026,11.7600002288818
495.036,7.1700005531311
495.046,17.5
495.056,8.1200008392334
495.061,4.72000026702881
495.071,20.5100002288818
495.081,22.8900012969971
495.091,11.3700008392334
495.101,19
495.111,3.1800000667572
495.121,5.84000015258789
495.131,22.0500011444092
495.141,11.9000005722046
495.151,-1.99000012874603
495.161,-3.1800000667572
495.171,-25.0900020599365
495.181,-11.2000007629395
495.191,4.79000043869019
495.201,-6.65000009536743
495.211,0
495.218,7.98000049591064
495.228,-0.280000001192093
495.238,16.5500011444092
495.248,1.33000004291534
495.258,-8.32999992370605
495.268,3.85000014305115
495.278,-13.2600002288818
495.288,-19.6000003814697
495.298,-3.53000020980835
495.308,2.66000008583069
495.318,-2.90000009536743
495.328,21.0300006866455
495.338,28.3500022888184
495.348,33.3900032043457
495.358,51.4100036621094
495.368,43.5700035095215
495.378,47.0400009155273
495.388,36.6800003051758
495.398,20.6100006103516
495.408,22.5700016021729
495.417,-7.80000019073486
495.427,-17.9900016784668
495.437,6.44000053405762
495.447,1.08000004291534
495.457,0.0700000002980232
495.467,11.8600006103516
495.477,5.70000028610229
495.487,12.3500003814697
495.497,14.9400005340576
495.507,-6.96000051498413
495.517,3.1100001335144
495.527,14.3100004196167
495.537,-13.9600009918213
495.547,-4.97000026702881
495.557,12.9800004959106
495.567,5.35000038146973
495.577,15.8200006484985
495.587,19.7000007629395
495.597,3.1800000667572
495.607,19.25
495.616,30.8700008392334
495.626,14.2100009918213
495.636,18.8600006103516
495.646,26.9500007629395
495.656,17.1500015258789
495.666,37.9000015258789
495.676,39.060001373291
495.686,20.2600002288818
495.696,32.2300033569336
495.706,45.5000038146973
495.716,27.6100006103516
495.726,41.8900032043457
495.736,49.8000030517578
495.746,30.5200023651123
495.756,43.3600006103516
495.766,34.9300003051758
495.776,18.6500015258789
495.786,5.49000024795532
495.796,-5.18000030517578
495.806,-18.9000015258789
495.811,22.8500003814697
495.821,22.9200019836426
495.831,32.060001373291
495.841,48.7900009155273
495.851,54.6700019836426
495.861,68.2800064086914
495.871,71.7800064086914
495.881,69.8199996948242
495.891,74.5800018310547
495.901,78.120002746582
495.911,78.5
495.921,61.1100044250488
495.931,30.8000011444092
495.941,7.91000032424927
495.951,1.85000014305115
495.961,3.1100001335144
495.968,12.4200010299683
495.978,46.8600006103516
495.988,99.1900024414062
495.998,135.830001831055
496.008,165.060012817383
496.018,183.360015869141
496.028,173.700012207031
496.038,149.520004272461
496.048,113.570007324219
496.058,51.4100036621094
496.068,-3.99000024795532
496.078,-48.3000030517578
496.088,-64.8899993896484
496.098,-68.8800048828125
496.108,-103.950004577637
496.118,-115.710006713867
496.128,-107.130004882812
496.138,-74.3000030517578
496.148,-49.0000038146973
496.158,-53.5800018310547
496.167,-42.0000038146973
496.177,-38.810001373291
496.187,-31.6400012969971
496.197,-16.6200008392334
496.207,-16.8299999237061
496.217,-37.1300010681152
496.227,-61.810001373291
496.237,-108.640007019043
496.247,-186.020004272461
496.257,-233.730010986328
496.267,-263.27001953125
496.277,-275.060028076172
496.287,-242.550018310547
496.297,-182.000015258789
496.307,-118.860008239746
496.317,-41.120002746582
496.327,17.7800006866455
496.337,57.8200035095215
496.347,85.4300003051758
496.357,114.200004577637
496.366,123.300003051758
496.376,108.460006713867
496.386,91.3500061035156
496.396,70.5200042724609
496.406,35.1400032043457
496.416,26.9500007629395
496.426,37.5200004577637
496.436,22.0500011444092
496.446,5.49000024795532
496.456,8.89000034332275
496.466,13.1600008010864
496.476,2.41000008583069
496.486,16.6200008392334
496.496,45.9500007629395
496.506,62.8200035095215
496.516,96.9500045776367
496.526,146.440002441406
496.536,185.780014038086
496.546,223.020004272461
496.556,265.75
496.561,228.410003662109
496.571,135.870010375977
496.581,30.0300006866455
496.591,-85.120002746582
496.601,-128.130004882812
496.611,-158.230010986328
496.621,-207.970016479492
496.631,-230.260009765625
496.641,-257.350006103516
496.651,-237.020004272461
496.661,-187.530014038086
496.671,-161.700012207031
496.681,-105.940002441406
496.691,1.4300000667572
496.701,105.940002441406
496.711,191.450012207031
496.718,258.860015869141
496.728,293.260009765625
496.738,299.180023193359
496.748,308.560028076172
496.758,302.010009765625
496.768,248.990005493164
496.778,197.540008544922
496.788,146.440002441406
496.798,84.6300048828125
496.808,7.38000011444092
496.818,-33.5300025939941
496.828,-68.6000061035156
496.838,-124.070007324219
496.848,-135.800003051758
496.858,-138.350006103516
496.868,-155.470001220703
496.878,-142.240005493164
496.888,-101.500007629395
496.898,-82.1100006103516
496.908,-46.2300033569336
496.917,-8.15000057220459
496.927,14.9800004959106
496.937,29.5400009155273
496.947,28.980001449585
496.957,31.4300022125244
496.967,15.7100009918213
496.977,13.8600006103516
496.987,12.1100006103516
496.997,-0.420000016689301
497.007,1.57000005245209
497.017,25.1300010681152
497.027,53.7900009155273
497.037,85.7500076293945
497.047,133.310012817383
497.057,167.610000610352
497.067,191.170013427734
497.077,206.360015869141
497.087,192.43000793457
497.097,155.400009155273
497.107,90.0900039672852
497.116,30.8300018310547
497.126,-21.0300006866455
497.136,-58.310001373291
497.146,-49.6600036621094
497.156,-10.8100004196167
497.166,19.6000003814697
497.176,55.4700012207031
497.186,110.980003356934
497.196,143.010009765625
497.206,149.690002441406
497.216,137.270004272461
497.226,115.67000579834
497.236,76.6500015258789
497.246,25.2000007629395
497.256,-3.01000022888184
497.266,-13.1900005340576
497.276,-27.6100006103516
497.286,-19.4600009918213
497.296,10.8100004196167
497.306,54.0700035095215
497.31,84.5200042724609
497.32,63.4200019836426
497.33,36.120002746582
497.34,16.4500007629395
497.35,-6.72000026702881
497.36,-11.4400005340576
497.37,-14.9800004959106
497.38,-31.0800018310547
497.39,-22.4000015258789
497.4,-5.70000028610229
497.41,14.0300006866455
497.42,30.6900005340576
497.43,57.5000038146973
497.44,80.2200012207031
497.45,67.9700012207031
497.46,51.310001373291
497.468,41.4000015258789
497.478,15.5700006484985
497.488,-22.8500003814697
497.498,-64.4000015258789
497.508,-83.7200012207031
497.518,-102.650001525879
497.528,-124.980003356934
497.538,-153.370010375977
497.548,-160.370010375977
497.558,-166.110000610352
497.568,-155.400009155273
497.578,-136.150009155273
497.588,-106.01000213623
497.598,-76.2300033569336
497.608,-37.6900024414062
497.618,27.0200004577637
497.628,105.700004577637
497.638,175.420013427734
497.648,244.580017089844
497.658,322.380004882812
497.667,399.910034179688
497.677,445.160034179688
497.687,469.210021972656
497.697,467.740020751953
497.707,418.670013427734
497.717,313.460021972656
497.727,198.450012207031
497.737,147.490005493164
497.747,76.4700012207031
497.757,36.2600021362305
497.767,7.70000028610229
497.777,-23.730001449585
497.787,-42.7300033569336
497.797,-36.0500030517578
497.807,-73.5699996948242
497.817,-100.130004882812
497.827,-161.800003051758
497.837,-222.210006713867
497.847,-281.920013427734
497.857,-322.070007324219
497.866,-325.150024414062
497.876,-327.070007324219
497.886,-295.960021972656
497.896,-227.320007324219
497.906,-138.420013427734
497.916,-54.180004119873
497.926,12.9500007629395
497.936,87.1100006103516
497.946,159.600006103516
497.956,201.110015869141
497.966,200.270004272461
497.976,178.150009155273
497.986,148.080001831055
497.996,111.540008544922
498.006,67.6500015258789
498.016,62.3000030517578
498.026,80.9500045776367
498.036,144.370010375977
498.046,188.050003051758
498.056,262.779998779297
498.061,251.470016479492
498.071,162.960006713867
498.081,63.4500045776367
498.091,-12.5300006866455
498.101,-70.6600036621094
498.111,-86.3100051879883
498.121,-81.3400039672852
498.131,-53.2000007629395
498.141,-11.0600004196167
498.151,24.9200019836426
498.161,49.9800033569336
498.171,55.1600036621094
498.181,36.1500015258789
498.191,9.20000076293945
498.201,-23.0300006866455
498.211,-50.2600021362305
498.218,-66.0400009155273
498.228,-86.5500030517578
498.238,-76.6800003051758
498.248,-51.0300025939941
498.258,-20.6100006103516
498.268,12.1400003433228
498.278,13.7200002670288
498.288,-0.140000000596046
498.298,-19.9100017547607
498.308,-43.120002746582
498.318,-71.890007019043
498.328,-113.710006713867
498.338,-161.730010986328
498.348,-184.310012817383
498.358,-180.740005493164
498.368,-174.650009155273
498.378,-143.150009155273
498.388,-101.250007629395
498.398,-58.0300025939941
498.408,-3.04000020027161
498.417,26.7000007629395
498.427,37.3800010681152
498.437,50.7500038146973
498.447,46.5500030517578
498.457,42.8400001525879
498.467,36.4000015258789
498.477,31.7800006866455
498.487,45.5300025939941
498.497,61.2100028991699
498.507,94.2500076293945
498.517,111.120002746582
498.527,109.130004882812
498.537,107.130004882812
498.547,71.7100067138672
498.557,41.120002746582
498.567,29.2600021362305
498.577,3.32000017166138
498.587,-4.0600004196167
498.597,13.0900001525879
498.607,36.7800025939941
498.615,63.310001373291
498.625,90.6500015258789
498.635,121.030006408691
498.645,141.360000610352
498.655,141.400009155273
498.665,130.970001220703
498.675,112.310005187988
498.685,114.130004882812
498.695,133.730010986328
498.705,136.389999389648
498.715,138.070007324219
498.725,142.310012817383
498.735,110.67000579834
498.745,77.1700057983398
498.755,35.9800033569336
498.765,-34.8200035095215
498.775,-67.2700042724609
498.785,-81.8600006103516
498.795,-98.3500061035156
498.805,-95.3000030517578
498.809,98.9400024414062
498.819,98.3500061035156
498.829,82.4200057983398
498.839,54.0700035095215
498.849,-1.4300000667572
498.859,-58.4800033569336
498.869,-96.390007019043
498.879,-116.160003662109
498.889,-114.76000213623
498.899,-129.080001831055
498.909,-141.780014038086
498.919,-128.270004272461
498.929,-109.200004577637
498.939,-83.370002746582
498.949,-53.060001373291
498.959,-22.6100006103516
498.968,6.47000026702881
498.978,27.1600017547607
498.988,44.5900039672852
498.998,50.3300018310547
499.008,47.4900016784668
499.018,32.7600021362305
499.028,23.5500011444092
499.038,24.4600009918213
499.048,43.7800025939941
499.058,49.1000022888184
499.068,57.7500038146973
499.078,53.3400039672852
499.088,56.1400032043457
499.098,54.4900016784668
499.108,64.9900054931641
499.118,72.4100036621094
499.128,63.5200042724609
499.138,47.3200035095215
499.148,44.2400016784668
499.158,55.2300033569336
499.167,83.9300003051758
499.177,128.900009155273
499.187,163.760009765625
499.197,170.940002441406
499.207,168.280014038086
499.217,160.68000793457
499.227,124.42000579834
499.237,67.3000030517578
499.247,0.450000017881393
499.257,-65.620002746582
499.267,-99.8200073242188
499.277,-112.940002441406
499.287,-127.080009460449
499.297,-105.070007324219
499.307,-58.5200042724609
499.317,-17.9900016784668
499.327,31.6000022888184
499.337,65.6600036621094
499.347,98.5900039672852
499.357,107.660003662109
499.365,105.590003967285
499.375,92.5000076293945
499.385,76.2300033569336
499.395,41.8600006103516
499.405,12.1100006103516
499.415,-7.5600004196167
499.425,-4.37000036239624
499.435,-4.34000015258789
499.445,-15.5700006484985
499.455,-22.7500019073486
499.465,-24.2500019073486
499.475,-20.7200012207031
499.485,-15.6400003433228
499.495,-4.76000022888184
499.505,5.18000030517578
499.515,15.1500005722046
499.525,21.730001449585
499.535,39.0200004577637
499.545,58.3400039672852
499.555,72.2400054931641
499.559,85.9600067138672
499.569,67.370002746582
499.579,62.8600044250488
499.589,65.620002746582
499.599,64.5699996948242
499.609,58.5900039672852
499.619,55.120002746582
499.629,54.9800033569336
499.639,47.180004119873
499.649,39.5100021362305
499.659,18.5800018310547
499.669,8.22000026702881
499.679,3.04000020027161
499.689,-9.97000026702881
499.699,-40.6000022888184
499.709,-50.9900016784668
499.718,-54.2800025939941
499.728,-50.1900024414062
499.738,-49.9400024414062
499.748,-25.5800018310547
499.758,-8.71000003814697
499.768,7.4200005531311
499.778,24.6700019836426
499.788,40.4900016784668
499.798,46.6900024414062
499.808,48.1900024414062
499.818,52.6400032043457
499.828,58.5900039672852
499.838,53.5500030517578
499.848,36.75
499.858,25.8600006103516
499.868,17.6400012969971
499.878,3.71000027656555
499.888,-25.480001449585
499.898,-46.060001373291
499.908,-54.9800033569336
499.917,-50.3300018310547
499.927,-41.0500030517578
499.937,-8.47000026702881
499.947,37.3800010681152
499.957,52.2900009155273
499.967,75.9100036621094
499.977,102.550003051758
499.987,104.820007324219
499.997,88.6500015258789
500.007,75.6300048828125
500.017,79.9000015258789
500.027,73.0800018310547
500.037,58.620002746582
500.047,40.3900032043457
500.057,31.6400012969971
500.067,20.1200008392334
500.077,4.55000019073486
500.087,-18.230001449585
500.097,-18.7200012207031
500.107,-24.5000019073486
500.115,-21.3800010681152
500.125,-10.6400003433228
500.135,-2.62000012397766
500.145,-0.240000009536743
500.155,2.06000018119812
500.165,11.9000005722046
500.175,21.8000011444092
500.185,25.5500011444092
500.195,-0.450000017881393
500.205,-42.7000007629395
500.215,-90.4000015258789
500.225,-122.810005187988
500.235,-109.580001831055
500.245,-73.9200057983398
500.255,-53.1600036621094
500.265,-25.060001373291
500.275,7.70000028610229
500.285,40.9100036621094
500.295,62.120002746582
500.305,79.7300033569336
500.309,43.8900032043457
500.319,44.5500030517578
500.329,35.310001373291
500.339,29.6400012969971
500.349,46.5500030517578
500.359,64.6100006103516
500.369,79.5500030517578
500.379,106.640007019043
500.389,121.940002441406
500.399,85.1500015258789
500.409,37.4800033569336
500.419,18.230001449585
500.429,-10.7400007247925
500.439,-39.6900024414062
500.449,-30.1300010681152
500.459,2.10000014305115
500.468,23.4100017547607
500.478,51.2000007629395
500.488,51.7600021362305
500.498,14.9800004959106
500.508,-3.95000028610229
500.518,7.91000032424927
500.528,3.46000027656555
500.538,-23.9400005340576
500.548,-40.2100028991699
500.558,-29.8200016021729
500.568,-10.7800006866455
500.578,2.17000007629395
500.588,19.9100017547607
500.598,42.6300010681152
500.608,64.1500015258789
500.618,67.8600006103516
500.628,76.3300018310547
500.638,52.430004119873
500.648,9.97000026702881
500.658,-12.3900003433228
500.667,-14.0000009536743
500.677,-34.75
500.687,-50.8900032043457
500.697,-44.9400024414062
500.707,-33.7400016784668
500.717,-21.2400016784668
500.727,-1.71000003814697
500.737,25.3400020599365
500.747,45.9900016784668
500.757,63.3500022888184
500.767,80.25
500.777,77.7700042724609
500.787,61.180004119873
500.797,49.9800033569336
500.807,37.7600021362305
500.817,22.0100002288818
500.827,16.4500007629395
500.837,17.25
500.847,8.89000034332275
500.857,-27.1200008392334
500.865,-46.8300018310547
500.875,-64.1500015258789
500.885,-90.2600021362305
500.895,-97.0500030517578
500.905,-67.4100036621094
500.915,-55.0900039672852
500.925,-33.5300025939941
500.935,16.5500011444092
500.945,37.2400016784668
500.955,11.3000001907349
500.965,5.39000034332275
500.975,17.4600009918213
500.985,4.51000022888184
500.995,-9.76000022888184
501.005,-0.21000000834465
501.015,-0.910000026226044
501.025,-11.9000005722046
501.035,4.97000026702881
501.045,-1.15000009536743
501.055,-21.8400001525879
501.059,-4.37000036239624
501.069,-28.5200004577637
501.079,-27.6500015258789
501.089,-9.52000045776367
501.099,-23.6200008392334
501.109,-28.6300010681152
501.119,-8.71000003814697
501.129,-2.27000021934509
501.139,-6.65000009536743
501.149,4.26999998092651
501.159,13.6800003051758
501.169,8.40000057220459
501.179,16.060001373291
501.189,29.2200012207031
501.199,11.3000001907349
501.209,7.24000024795532
501.218,6.37000036239624
501.228,-14.3100004196167
501.238,-12.3200006484985
501.248,11.5100002288818
501.258,10.3900003433228
501.268,5.39000034332275
501.278,18.1600017547607
501.288,23.310001373291
501.298,23.1300010681152
501.308,38.6700019836426
501.318,24.6000003814697
501.328,0.980000019073486
501.338,6.16000032424927
501.348,-12.6300010681152
501.358,-39.0900001525879
501.368,-43.4300003051758
501.378,-48.1600036621094
501.388,-57.4700012207031
501.398,-51.9000015258789
501.408,-42.870002746582
501.417,-41.7900009155273
501.427,-12.9500007629395
501.437,25.1600017547607
501.447,27.1200008392334
501.457,29.4000015258789
501.467,33.0699996948242
501.477,10.6700000762939
501.487,-5.70000028610229
501.497,-7.00000047683716
501.507,-28.0700016021729
501.517,-30.3800010681152
501.527,-14.1000003814697
501.537,-16.8299999237061
501.547,-4.26999998092651
501.557,38.0400009155273
501.567,43.120002746582
501.577,31.1800022125244
501.587,36.1500015258789
501.597,7.49000024795532
501.607,-3.71000027656555
501.615,12.9800004959106
501.625,-2.10000014305115
501.635,-3.22000026702881
501.645,14.5900011062622
501.655,11.7600002288818
501.665,8.92000007629395
501.675,13.3300008773804
501.685,-10.460000038147
501.695,-34.7900009155273
501.705,-35.9099998474121
501.715,-45.4300003051758
501.725,-57.4700012207031
501.735,-32.7200012207031
501.745,-9.27000045776367
501.755,7.03000020980835
501.765,31.1800022125244
501.775,46.4400024414062
501.785,50.8900032043457
501.795,48.6100006103516
501.805,33.7000007629395
501.809,-14.3500003814697
501.819,8.05000019073486
501.829,9.24000072479248
501.839,26.0700016021729
501.849,26.7000007629395
501.859,-4.51000022888184
501.869,-17.9500007629395
501.879,-13.2600002288818
501.889,-36.8900032043457
501.899,-48.3300018310547
501.909,-35.560001373291
501.919,-46.8300018310547
501.929,-35.7700004577637
501.939,-13.5800008773804
501.949,-32.0900001525879
501.959,-41.2600021362305
501.968,-30.8000011444092
501.978,-64.6399993896484
501.988,-88.4100036621094
501.998,-76.4700012207031
502.008,-77.1700057983398
502.018,-28.2800006866455
502.028,42.870002746582
502.038,60.2300033569336
502.048,83.4000015258789
502.058,115.880004882812
502.068,106.640007019043
502.078,78.890007019043
502.088,38.4300003051758
502.098,-4.97000026702881
502.108,-38.3900032043457
502.118,-66.5300064086914
502.128,-84.2400054931641
502.138,-80.7400054931641
502.148,-58.4800033569336
502.158,-37.1300010681152
502.167,-32.9000015258789
502.177,-31.3200016021729
502.187,-48.0500030517578
502.197,-61.180004119873
502.207,-68.9800033569336
502.217,-100.410003662109
502.227,-103.840003967285
502.237,-73.8500061035156
502.247,-51.620002746582
502.257,-34.5800018310547
502.267,-16.2000007629395
502.277,8.71000003814697
502.287,31.1100006103516
502.297,54.2800025939941
502.307,49.0700035095215
502.317,15.9200010299683
502.327,-4.48000001907349
502.337,-22.9600009918213
502.347,-52.6400032043457
502.357,-61.8800010681152
502.365,-63.4900016784668
502.375,-65.2400054931641
502.385,-53.3000030517578
502.395,-46.7200012207031
502.405,-64.9900054931641
502.415,-88.3400039672852
502.425,-87.7400054931641
502.435,-86.9000015258789
502.445,-82.3200073242188
502.455,-58.7600021362305
502.465,-33.2100028991699
502.475,-14.6300010681152
502.485,1.57000005245209
502.495,17.6700000762939
502.505,13.6800003051758
502.515,15.4300003051758
502.525,16.1300010681152
502.535,-2.83000016212463
502.545,-11.7200002670288
502.555,-6.6100001335144
502.559,-33.0699996948242
502.569,-17.9900016784668
502.579,-4.26999998092651
502.589,2.20000004768372
502.599,8.32999992370605
502.609,8.53999996185303
502.619,-3.78000020980835
502.629,-21.4500007629395
502.639,-12.0700006484985
502.649,-16.6200008392334
502.659,-42.1400032043457
502.669,-41.8600006103516
502.679,-26.1800003051758
502.689,-25.1300010681152
502.699,-26.3900012969971
502.709,-10.460000038147
502.718,-9.34000015258789
502.728,-4.41000032424927
502.738,11.1300001144409
502.748,33.8400001525879
502.758,31.0100021362305
502.768,30.0300006866455
502.778,41.7200012207031
502.788,67.0200042724609
502.798,91.8400039672852
502.808,123.51000213623
502.818,142.690002441406
502.828,156.130004882812
502.838,147.139999389648
502.848,157.110000610352
502.858,158.900009155273
502.868,144.480010986328
502.878,135.550003051758
502.888,110.980003356934
502.898,67.6500015258789
502.908,31.4300022125244
502.916,8.89000034332275
502.926,-11.4400005340576
502.936,-50.5400009155273
502.946,-66.3199996948242
502.956,-65.4100036621094
502.966,-60.620002746582
502.976,-45.7800025939941
502.986,-50.5700035095215
502.996,-44.4500007629395
503.006,-25.7600021362305
503.016,-14.4200010299683
503.026,-13.2300004959106
503.036,-8.68000030517578
503.046,-9.3100004196167
503.056,-24.1500015258789
503.066,-20.0500011444092
503.076,-29.4000015258789
503.086,-45.9500007629395
503.096,-55.5400009155273
503.106,-36.9600028991699
503.115,-21.5900001525879
503.125,-13.4700002670288
503.135,6.30000019073486
503.145,26.7000007629395
503.155,47.1400032043457
503.165,73.5
503.175,79.1700057983398
503.185,66.9900054931641
503.195,43.2200012207031
503.205,7.4200005531311
503.215,-5.91000032424927
503.225,-25.6500015258789
503.235,-47.6000022888184
503.245,-68.0699996948242
503.255,-46.7200012207031
503.265,-23.7600002288818
503.275,-7.24000024795532
503.285,19.5300006866455
503.295,38.0100021362305
503.305,50.8500022888184
503.309,97.370002746582
503.319,91.2800064086914
503.329,78.3300018310547
503.339,35
503.349,-37.8000030517578
503.359,-99.8200073242188
503.369,-136.080001831055
503.379,-138.810012817383
503.389,-130.200012207031
503.399,-104.790008544922
503.409,-73.0400009155273
503.419,-45.6000022888184
503.429,-43.2600021362305
503.439,-20.1600017547607
503.449,-15.0800008773804
503.459,-33.3500022888184
503.468,-52.430004119873
503.478,-10.9200000762939
503.488,19.8400001525879
503.498,43.1500015258789
503.508,53.7600021362305
503.518,54.6000022888184
503.528,56.0000038146973
503.538,66.7400054931641
503.548,85.9900054931641
503.558,67.9700012207031
503.568,28.3500022888184
503.578,-32.2700004577637
503.588,-64.75
503.598,-100.830001831055
503.608,-134.400009155273
503.618,-179.480010986328
503.628,-178.390014648438
503.638,-175.560012817383
503.648,-177.380004882812
503.658,-165.09001159668
503.666,-149.480010986328
503.676,-137.300003051758
503.686,-118.470008850098
503.696,-83.4000015258789
503.706,-35.6599998474121
503.716,-13.5800008773804
503.726,8.99000072479248
503.736,91.4900054931641
503.746,207.650009155273
503.756,248.810012817383
503.766,224.660003662109
503.776,180.18000793457
503.786,155.890014648438
503.796,121.240005493164
503.806,54.6000022888184
503.816,-22.7800006866455
503.826,-70.4200057983398
503.836,-131
503.846,-189.560012817383
503.856,-221.480010986328
503.865,-219.660003662109
503.875,-275.310028076172
503.885,-341.250030517578
503.895,-361.970031738281
503.905,-357.840026855469
503.915,-329.420013427734
503.925,-317.760009765625
503.935,-282.410003662109
503.945,-223.510009765625
503.955,-140.450012207031
503.965,-53.8600044250488
503.975,3.01000022888184
503.985,39.1300010681152
503.995,83.8600006103516
504.005,122.780006408691
504.015,174.440002441406
504.025,204.330017089844
504.035,179.130004882812
504.045,140.770004272461
504.055,129.460006713867
504.059,-91.8000030517578
504.069,-107.940002441406
504.079,-134.080001831055
504.089,-137.900009155273
504.099,-156.270004272461
504.109,-162.640014648438
504.119,-138.880004882812
504.129,-119.700004577637
504.139,-131.25
504.149,-143.389999389648
504.159,-113.120002746582
504.169,-78.640007019043
504.179,-37.4800033569336
504.189,30.9400005340576
504.199,104.610008239746
504.209,183.190002441406
504.218,269.320007324219
504.228,332.530029296875
504.238,329.840026855469
504.248,292.210021972656
504.258,231.84001159668
504.268,172.650009155273
504.278,106.470008850098
504.288,35.9800033569336
504.298,-20.9600009918213
504.308,-41.8600006103516
504.318,-54.2800025939941
504.328,-71.9600067138672
504.338,-68
504.348,-30.7600021362305
504.358,-7.98000049591064
504.368,2.62000012397766
504.378,15.9600009918213
504.388,28.4200019836426
504.398,26.7400016784668
504.408,30.4100017547607
504.416,38.9500007629395
504.426,34.370002746582
504.436,24.6000003814697
504.446,21.2800006866455
504.456,25.6500015258789
504.466,16.8000011444092
504.476,-24.0800018310547
504.486,-53.9700012207031
504.496,-67.5500030517578
504.506,-104.020004272461
504.516,-137.760009765625
504.526,-140.84001159668
504.536,-141.120010375977
504.546,-146.260009765625
504.556,-138.460006713867
504.566,-114.130004882812
504.576,-89.7000045776367
504.586,-89.8100051879883
504.596,-69.2300033569336
504.606,-33.3199996948242
504.615,1.96000003814697
504.625,20.8200016021729
504.635,41.8600006103516
504.645,67.4100036621094
504.655,60.060001373291
504.665,51.060001373291
504.675,61.6700019836426
504.685,45.1100006103516
504.695,19.4900016784668
504.705,20.0200004577637
504.715,22.8200016021729
504.725,15.2900009155273
504.735,2.48000001907349
504.745,11.2700004577637
504.755,23.310001373291
504.765,18.7200012207031
504.775,14.6600008010864
504.785,19.3200016021729
504.795,18.9300003051758
504.805,13.1200008392334
504.809,-13.7900009155273
504.819,1.96000003814697
504.829,53.2000007629395
504.839,0.450000017881393
504.849,-125.230003356934
504.859,-141.010009765625
504.869,-53.1300010681152
504.879,-0.310000002384186
504.889,12.5300006866455
504.899,18.9300003051758
504.909,-4.79000043869019
504.919,-52.2900009155273
504.929,-36.7100028991699
504.939,21.1700000762939
504.949,31.3600006103516
504.959,69.5400009155273
504.968,78.2200012207031
504.978,-4.30000019073486
504.988,-7.45000028610229
504.998,43.120002746582
505.008,29.1200008392334
505.018,9.38000011444092
505.028,39.3400001525879
505.038,-0.910000026226044
505.048,3.01000022888184
505.058,54.3200035095215
505.068,-13.1900005340576
505.078,-68.5300064086914
505.088,-85.5400009155273
505.098,-22.6800003051758
505.108,-20.8200016021729
505.118,-29.6400012969971
505.128,15.8900003433228
505.138,-51.4800033569336
505.148,-113.330001831055
505.158,-64.3600006103516
505.166,-0.140000000596046
505.176,-62.5100021362305
505.186,-3.22000026702881
505.196,92.6100006103516
505.206,93.7600021362305
505.216,95.8600082397461
505.226,64.0800018310547
505.236,-50.4000015258789
505.246,-76.75
505.256,-60.1300010681152
505.266,-44.1300010681152
505.276,-34.5100021362305
505.286,-62.8600044250488
505.296,-102.970001220703
505.306,-82.9800033569336
505.316,-37.0300025939941
505.326,-90.6500015258789
505.336,-102.690002441406
505.346,50.1900024414062
505.356,207.060012817383
505.365,198.060012817383
505.375,183.920013427734
505.385,238.030014038086
505.395,290.640014648438
505.405,324.900024414062
505.415,325.460021972656
505.425,321.160003662109
505.435,286.680023193359
505.445,219.130004882812
505.455,196.84001159668
505.465,142.200012207031
505.475,38.1800003051758
505.485,-28.1400012969971
505.495,-83.1900024414062
505.505,-125.820007324219
505.515,-127.120002746582
505.525,-150.950012207031
505.535,-150.950012207031
505.545,-114.940002441406
505.555,-83.7900009155273
505.559,17.8500003814697
505.569,31.0400009155273
505.579,35.560001373291
505.589,31.5300006866455
505.599,26.810001373291
505.609,20.7200012207031
505.619,24.9500007629395
505.629,13.4000005722046
505.639,4.58000040054321
505.649,15.4700002670288
505.659,9.3100004196167
505.669,12.3200006484985
505.679,13.2600002288818
505.689,2.73000001907349
505.699,2.24000000953674
505.709,-0.660000026226044
505.718,-8.47000026702881
505.728,-16.3400001525879
505.738,-21.3500003814697
505.748,-9.41000080108643
505.758,4.72000026702881
505.768,-1.00999999046326
505.778,-0.840000033378601
505.788,2.34000015258789
505.798,1.40000009536743
505.808,0.870000064373016
505.818,11.1600008010864
505.828,7.73000049591064
505.838,6.37000036239624
505.848,19.1100006103516
505.858,22.2200012207031
505.868,18.7200012207031
505.878,30.0300006866455
505.888,43.2900009155273
505.898,35.6300010681152
505.908,36.7100028991699
505.916,39.7600021362305
505.926,35.3500022888184
505.936,43.4700012207031
505.946,50.5000038146973
505.956,37.4100036621094
505.966,28.2100009918213
505.976,28.0300006866455
505.986,21.7700004577637
505.996,9.76000022888184
506.006,1.15000009536743
506.016,-6.44000053405762
506.026,-13.0500001907349
506.036,-7.00000047683716
506.046,-0.560000002384186
506.056,-7.3100004196167
506.066,-2.45000004768372
506.076,3.64000010490417
506.086,5.14000034332275
506.096,17.7400016784668
506.106,29.5700016021729
506.115,32.2700004577637
506.125,33.8800010681152
506.135,44.7300033569336
506.145,50.7500038146973
506.155,40.9500007629395
506.165,38.6000022888184
506.175,37.6600036621094
506.185,22.6400012969971
506.195,4.48000001907349
506.205,-2.17000007629395
506.215,-25.6200008392334
506.225,-36.4300003051758
506.235,-25.9700012207031
506.245,-32.6900024414062
506.255,-26.2500019073486
506.265,-9.52000045776367
506.275,-11.4800004959106
506.285,-1.19000005722046
506.295,19.7400016784668
506.305,17.0100002288818
506.309,11.3400001525879
506.319,3.01000022888184
506.329,-13.9600009918213
506.339,-0.140000000596046
506.349,-8.40000057220459
506.359,-15.5400009155273
506.369,-4.76000022888184
506.379,-7.5600004196167
506.389,-16.480001449585
506.399,1.6800000667572
506.409,4.30000019073486
506.419,-4.16000032424927
506.429,6.37000036239624
506.439,0.0300000011920929
506.449,-12.3200006484985
506.459,-8.32999992370605
506.468,-3.1100001335144
506.478,-2.27000021934509
506.488,4.09000015258789
506.498,0.560000002384186
506.508,-7.59000015258789
506.518,4.13000011444092
506.528,9.80000019073486
506.538,1.40000009536743
506.548,7.98000049591064
506.558,6.82000017166138
506.568,-11.2000007629395
506.578,-4.79000043869019
506.588,-8.68000030517578
506.598,-19
506.608,-13.1600008010864
506.618,-25.2700004577637
506.628,-33.8400001525879
506.638,-18.9700012207031
506.648,-16.7600002288818
506.658,-9.69000053405762
506.666,7.5600004196167
506.676,-0.420000016689301
506.686,-10.5700006484985
506.696,-12.9800004959106
506.706,-20.4400005340576
506.716,-22.0500011444092
506.726,-15.8900003433228
506.736,-18.7200012207031
506.746,-6.09000015258789
506.756,18.8600006103516
506.766,24.7100009918213
506.776,31.6000022888184
506.786,42.4200019836426
506.796,32.5800018310547
506.806,29.3300018310547
506.816,15.7500009536743
506.826,-7.5600004196167
506.836,-18.0200004577637
506.846,-32.6900024414062
506.856,-48.0200004577637
506.865,-42.4200019836426
506.875,-31.7400016784668
506.885,-25.4400005340576
506.895,-0.840000033378601
506.905,12.9500007629395
506.915,19.6300010681152
506.925,41.120002746582
506.935,29.7100009918213
506.945,10.6700000762939
506.955,15.0100011825562
506.965,2.10000014305115
506.975,0.100000001490116
506.985,14.2100009918213
506.995,0.520000040531158
507.005,-12.8400001525879
507.015,-9.8700008392334
507.025,-19.6300010681152
507.035,-11.1300001144409
507.045,7.66000032424927
507.055,-9.17000007629395
507.059,12.4900007247925
507.069,12.8800010681152
507.079,29.9600009918213
507.089,51.5900039672852
507.099,41.0900001525879
507.109,45.9900016784668
507.119,42.7000007629395
507.129,19.1800003051758
507.139,17.8800010681152
507.149,6.54000043869019
507.159,-21.7700004577637
507.169,-22.7800006866455
507.179,-26.3900012969971
507.189,-30.060001373291
507.199,-9.90000057220459
507.209,-4.23000001907349
507.217,6.09000015258789
507.227,34.8600006103516
507.237,29.4700012207031
507.247,22.5400009155273
507.257,26.3200016021729
507.267,14.5600004196167
507.277,-4.8600001335144
507.287,-11.2000007629395
507.297,-24.0800018310547
507.307,-26.6000003814697
507.317,-12.3200006484985
507.327,-10.710000038147
507.337,-5.28000020980835
507.347,6.09000015258789
507.357,6.68000030517578
507.367,14.6600008010864
507.377,16.2000007629395
507.387,-2.38000011444092
507.397,-5.46000003814697
507.407,-6.26000022888184
507.416,-18.480001449585
507.426,-21.4200000762939
507.436,-20.7900009155273
507.446,-24.1800003051758
507.456,-17.2900009155273
507.466,-19.7700004577637
507.476,-26.4600009918213
507.486,-18.3000011444092
507.496,-16.5200004577637
507.506,-25.230001449585
507.516,-1.75000011920929
507.526,24.9200019836426
507.536,37.2700004577637
507.546,56.2800025939941
507.556,70.2100067138672
507.566,65.870002746582
507.576,70.9800033569336
507.586,73.25
507.596,47.8400039672852
507.606,45.0100021362305
507.615,56.9400024414062
507.625,52.1100006103516
507.635,45.1100006103516
507.645,56.3800010681152
507.655,56.310001373291
507.665,46.5500030517578
507.675,52.2200012207031
507.685,42.0000038146973
507.695,8.71000003814697
507.705,-2.83000016212463
507.715,-21.7000007629395
507.725,-62.7500038146973
507.735,-92.4700012207031
507.745,-89.6000061035156
507.755,-92.120002746582
507.765,-81.620002746582
507.775,-51.5900039672852
507.785,-38.1100006103516
507.795,-47.2100028991699
507.805,-53.6500015258789
507.809,-162.050003051758
507.819,-157.460006713867
507.829,-110.210006713867
507.839,-62.7900047302246
507.849,-28.2800006866455
507.859,0.280000001192093
507.869,17.7100009918213
507.879,11.5800008773804
507.889,-2.20000004768372
507.899,-3.1100001335144
507.909,-7.5600004196167
507.919,-24.4600009918213
507.929,-22.5000019073486
507.939,4.93000030517578
507.949,32.7200012207031
507.959,52.2900009155273
507.967,85.4300003051758
507.977,120.990005493164
507.987,122.67000579834
507.997,112.240005493164
508.007,105.100006103516
508.017,63.3800048828125
508.027,6.12000036239624
508.037,-32.4400024414062
508.047,-59.5700035095215
508.057,-90.7900009155273
508.067,-138.810012817383
508.077,-149.620010375977
508.087,-124.950004577637
508.097,-117.600006103516
508.107,-97.4000015258789
508.117,-74.8600006103516
508.127,-51.5900039672852
508.137,-53.8300018310547
508.147,-56.0300025939941
508.157,-66.1500015258789
508.166,-94.8100051879883
508.176,-130.93000793457
508.186,-145.700012207031
508.196,-146.820007324219
508.206,-128.730010986328
508.216,-105.520004272461
508.226,-65.0600051879883
508.236,-10.0800008773804
508.246,29.2200012207031
508.256,45.0800018310547
508.266,76.2300033569336
508.276,93.7600021362305
508.286,78.3300018310547
508.296,54.2800025939941
508.306,39.8600006103516
508.316,4.76000022888184
508.326,-23.0300006866455
508.336,-55.7500038146973
508.346,-60.0900039672852
508.356,-54.7400016784668
508.365,-54.7400016784668
508.375,-67.6900024414062
508.385,-63.0300025939941
508.395,-48.3000030517578
508.405,-41.3300018310547
508.415,-52.1500015258789
508.425,-44.2700004577637
508.435,-41.6100006103516
508.445,-48.9600028991699
508.455,-45.810001373291
508.465,-52.0400009155273
508.475,-56.9100036621094
508.485,-76.4000015258789
508.495,-97.8600082397461
508.505,-109.900001525879
508.515,-142.800003051758
508.525,-172.580001831055
508.535,-206.360015869141
508.545,-203.030014038086
508.555,-187.000015258789
508.559,-60.930004119873
508.569,-77.4900054931641
508.579,-99.7500076293945
508.589,-88.2700042724609
508.599,-91.2800064086914
508.609,-118.020004272461
508.619,-135.760009765625
508.629,-137.760009765625
508.639,-107.550003051758
508.649,-76.2600021362305
508.659,-77.5200042724609
508.669,-76.4000015258789
508.679,-62.7500038146973
508.689,-35.0300025939941
508.699,-19.0700016021729
508.709,-11.3400001525879
508.717,-0.350000023841858
508.727,23.5500011444092
508.737,63.5200042724609
508.747,83.6800003051758
508.757,95.5800018310547
508.767,128.34001159668
508.777,174.230010986328
508.787,224.310012817383
508.797,257.490020751953
508.807,273.700012207031
508.817,279.470001220703
508.827,281.850006103516
508.837,267.540008544922
508.847,242.270004272461
508.857,212.480010986328
508.867,173.320007324219
508.877,120.26000213623
508.887,63.2400016784668
508.897,21.1400012969971
508.907,-8.22000026702881
508.916,-23.1700019836426
508.926,-31.2200012207031
508.936,-27.2600021362305
508.946,-7.59000015258789
508.956,14.1000003814697
508.966,35.1700019836426
508.976,66.0400009155273
508.986,90.2600021362305
508.996,98.7000045776367
509.006,84.4900054931641
509.016,71.890007019043
509.026,54.1400032043457
509.036,37.6600036621094
509.046,28.5900020599365
509.056,9.3100004196167
509.066,-5.63000011444092
509.076,-19.7000007629395
509.086,-15.0500011444092
509.096,-1.33000004291534
509.106,-14.8400011062622
509.115,-51.620002746582
509.125,-97.890007019043
509.135,-143.600006103516
509.145,-183.570007324219
509.155,-239.990005493164
509.165,-281.960021972656
509.175,-289.450012207031
509.185,-247.760009765625
509.195,-182.560012817383
509.205,-136.460006713867
509.215,-140.700012207031
509.225,-136.220001220703
509.235,-106.290008544922
509.245,-94.8800048828125
509.255,-99.2600021362305
509.265,-110.810005187988
509.275,-107.480003356934
509.285,-58.6900024414062
509.295,12.6000003814697
509.305,46.3400039672852
509.309,63.6600036621094
509.319,-6.51000022888184
509.329,-60.7200012207031
509.339,-103.530006408691
509.349,-119.140007019043
509.359,-126.450004577637
509.369,-147.450012207031
509.379,-126.730003356934
509.389,-80.1800003051758
509.399,-38.3200035095215
509.409,-1.47000002861023
509.419,26.6700019836426
509.429,45.0400009155273
509.439,77.870002746582
509.449,146.510009765625
509.459,220.250015258789
509.467,225.470016479492
509.477,133.029998779297
509.487,25.230001449585
509.497,-23.3800010681152
509.507,-58.870002746582
509.517,-76.5100021362305
509.527,-87.5000076293945
509.537,-69.9600067138672
509.547,-13.9600009918213
509.557,96.3200073242188
509.567,187.950012207031
509.577,225.220016479492
509.587,284.650024414062
509.597,304.5
509.607,286.75
509.617,241.600006103516
509.627,159.420013427734
509.637,60.3400039672852
509.647,-47.4600028991699
509.657,-136.639999389648
509.666,-192.360015869141
509.676,-220.040008544922
509.686,-259.420013427734
509.696,-304.530029296875
509.706,-341.880004882812
509.716,-355.840026855469
509.726,-342.790008544922
509.736,-266.840026855469
509.746,-179.620010375977
509.756,-118.230003356934
509.766,-65.3400039672852
509.776,-20.1200008392334
509.786,-14.7300004959106
509.796,-19.7700004577637
509.806,-34.120002746582
509.816,-69.3000030517578
509.826,-74.7200012207031
509.836,-43.9200019836426
509.846,-20.0200004577637
509.856,8.05000019073486
509.865,44.620002746582
509.875,101.360008239746
509.885,148.610000610352
509.895,177.870010375977
509.905,204.920013427734
509.915,189.240005493164
509.925,171.780014038086
509.935,171.250015258789
509.945,151.200012207031
509.955,121.970008850098
509.965,83.4400024414062
509.975,46.2300033569336
509.985,12.2500009536743
509.995,-18.6500015258789
510.005,-41.5800018310547
510.015,-77.9400024414062
510.025,-128.900009155273
510.035,-163.170013427734
510.045,-161.380004882812
510.055,-168.84001159668
510.06,-51.6600036621094
510.07,-32.5800018310547
510.08,-24.8800010681152
510.09,-24.3600006103516
510.1,-5.49000024795532
510.11,4.34000015258789
510.12,9.3100004196167
510.13,-10.1100006103516
510.14,-24.6400012969971
510.15,-36.2600021362305
510.16,-50.0100021362305
510.17,-71.2900009155273
510.18,-95.8600082397461
510.19,-99.5400009155273
510.2,-92.9200057983398
510.21,-68.7400054931641
510.217,-61.2500038146973
510.227,-60.3000030517578
510.237,-44.2700004577637
510.247,-20.7200012207031
510.257,8.89000034332275
510.267,33.2100028991699
510.277,49.8000030517578
510.287,61.4900016784668
510.297,73.1500015258789
510.307,77.4900054931641
510.317,78.6100006103516
510.327,85.0500030517578
510.337,82.9800033569336
510.347,94.2900009155273
510.357,102.090003967285
510.367,112.350006103516
510.377,116.370002746582
510.387,103.67000579834
510.397,84.9100036621094
510.407,68.9500045776367
510.416,48.3000030517578
510.426,4.51000022888184
510.436,-36.0500030517578
510.446,-81.5500030517578
510.456,-105.490005493164
510.466,-125.580009460449
510.476,-155.360000610352
510.486,-173.040008544922
510.496,-148.290008544922
510.506,-111.190002441406
510.516,-70.7000045776367
510.526,-26.4600009918213
510.536,26.8800010681152
510.546,95.370002746582
510.556,133.730010986328
510.566,138.25
510.576,128.660003662109
510.586,119.450004577637
510.596,92.7800064086914
510.606,39.1300010681152
510.615,-30.5500011444092
510.625,-80.6000061035156
510.635,-111.050003051758
510.645,-133.520004272461
510.655,-160.820007324219
510.665,-172.130004882812
510.675,-148.610000610352
510.685,-100.870002746582
510.695,-67.5800018310547
510.705,-59.2200012207031
510.715,-26.2100009918213
510.725,13.1900005340576
510.735,47.3900032043457
510.745,70.870002746582
510.755,87.1800079345703
510.765,111.720008850098
510.775,98.2800064086914
510.785,76.3300018310547
510.795,52.180004119873
510.805,20.9300003051758
510.809,-145.320007324219
510.819,-163.59001159668
510.829,-182.730010986328
510.839,-189.420013427734
510.849,-157.360000610352
510.859,-117.320007324219
510.869,-57.9600028991699
510.879,-28.8700008392334
510.889,10.9200000762939
510.899,65.870002746582
510.909,48.370002746582
510.919,99.2900009155273
510.929,100.970001220703
510.939,39.4400024414062
510.949,23.9400005340576
510.959,47.7000007629395
510.967,-35.9800033569336
510.977,-11.5500001907349
510.987,-6.79000043869019
510.997,-17.4600009918213
511.007,15.0500011444092
511.017,-44.6600036621094
511.027,-97.890007019043
511.037,-97.4000015258789
511.047,-112.210006713867
511.057,-103.040008544922
511.067,-57.9900016784668
511.077,-64.9900054931641
511.087,20.4400005340576
511.097,76.3000030517578
511.107,149.660003662109
511.117,217.980010986328
511.127,213.010009765625
511.137,252.420013427734
511.147,233.170013427734
511.157,163.760009765625
511.166,107.130004882812
511.176,24.7100009918213
511.186,-84.2100067138672
511.196,-142.940002441406
511.206,-189.770004272461
511.216,-218.470016479492
511.226,-234.780014038086
511.236,-223.400009155273
511.246,-268.240020751953
511.256,-229.910003662109
511.266,-122.570007324219
511.276,-71.3300018310547
511.286,-28.0700016021729
511.296,-5.18000030517578
511.306,48.120002746582
511.316,83.370002746582
511.326,162.990005493164
511.336,219.34001159668
511.346,218.780014038086
511.356,240.170013427734
511.361,102.370002746582
511.371,66.8500061035156
511.381,19.8800010681152
511.391,-49.3500022888184
511.401,-98.5900039672852
511.411,-109.160003662109
511.421,-146.820007324219
511.431,-186.93000793457
511.441,-211.570007324219
511.451,-222.320007324219
511.461,-266.590026855469
511.471,-302.470001220703
511.481,-308.910003662109
511.491,-312.480010986328
511.501,-311.570007324219
511.511,-308
511.518,-256.27001953125
511.528,-131.910003662109
511.538,22.7800006866455
511.548,200.160003662109
511.558,341.110015869141
511.568,412.580017089844
511.578,453.77001953125
511.588,373.550018310547
511.598,276.5
511.608,194.950012207031
511.618,61.4900016784668
511.628,-51.620002746582
511.638,-105.870002746582
511.648,-144.370010375977
511.658,-162.920013427734
511.668,-190.990005493164
511.678,-177.620010375977
511.688,-81.6500015258789
511.698,38.8800010681152
511.708,65.0300064086914
511.717,96.5300064086914
511.727,100.830001831055
511.737,55.0900039672852
511.747,40.6300010681152
511.757,41.4700012207031
511.767,11.5800008773804
511.777,-4.69000005722046
511.787,4.26999998092651
511.797,1.26000010967255
511.807,-5.35000038146973
511.817,-29.5400009155273
511.827,-35.5200004577637
511.837,-29.7500019073486
511.847,-33.1800003051758
511.857,-56.2800025939941
511.867,-42.4500007629395
511.877,-30.8300018310547
511.887,-24.6400012969971
511.897,-11.8600006103516
511.907,-2.20000004768372
511.916,8.26000022888184
511.926,16.9400005340576
511.936,27.230001449585
511.946,24.7400016784668
511.956,0.350000023841858
511.966,-13.7900009155273
511.976,3.25000023841858
511.986,4.30000019073486
511.996,-3.74000024795532
512.006,14.6300010681152
512.016,39.3400001525879
512.026,48.6100006103516
512.036,61.7000045776367
512.046,72.5200042724609
512.056,51.3400039672852
512.066,36.5
512.076,37.060001373291
512.086,36.1900024414062
512.096,27.0500011444092
512.106,9.83000087738037
512.111,-2.66000008583069
512.121,12.2800006866455
512.131,20.1200008392334
512.141,32.2700004577637
512.151,40.4600028991699
512.161,35.3500022888184
512.171,34.7200012207031
512.181,44.2000007629395
512.191,29.5400009155273
512.201,9.83000087738037
512.211,5.46000003814697
512.221,10.3200006484985
512.231,0.730000019073486
512.241,-18.060001373291
512.251,-20.8600006103516
512.261,-35.9400024414062
512.268,-34.9600028991699
512.278,-8.78000068664551
512.288,16.7600002288818
512.298,16.2700004577637
512.308,26.3500003814697
512.318,61.4200019836426
512.328,56.6600036621094
512.338,42.870002746582
512.348,54.0700035095215
512.358,34.0500030517578
512.368,24.7400016784668
512.378,29.0100021362305
512.388,15.6800003051758
512.398,-21.2400016784668
512.408,-20.6100006103516
512.418,-1.47000002861023
512.428,-13.2300004959106
512.438,-20.2600002288818
512.448,7.91000032424927
512.458,22.9200019836426
512.467,10.5300006866455
512.477,9.6200008392334
512.487,21.7000007629395
512.497,31.9200019836426
512.507,38.25
512.517,56.1700019836426
512.527,63.7700042724609
512.537,61.2800025939941
512.547,87.7800064086914
512.557,103.980003356934
512.567,70.5200042724609
512.577,18.7200012207031
512.587,-21.8700008392334
512.597,-49.8400039672852
512.607,-56.4200019836426
512.617,-29.2900009155273
512.627,-39.9300003051758
512.637,-44.9400024414062
512.647,-9.6200008392334
512.657,4.16000032424927
512.666,4.65000009536743
512.676,35.3800010681152
512.686,67.6500015258789
512.696,76.7900009155273
512.706,94.4300079345703
512.716,117.980003356934
512.726,117.460006713867
512.736,101.950004577637
512.746,104.820007324219
512.756,95.7900009155273
512.766,48.6500015258789
512.776,33.9800033569336
512.786,32.5100021362305
512.796,12.6000003814697
512.806,11.4400005340576
512.816,14.7000007629395
512.826,-19.810001373291
512.836,-65.2400054931641
512.846,-93.2700042724609
512.856,-107.620002746582
512.861,-20.9600009918213
512.871,16.7600002288818
512.881,41.3000030517578
512.891,64.1500015258789
512.901,77.7700042724609
512.911,70.2100067138672
512.921,63.0700035095215
512.931,84.9100036621094
512.941,84.8400039672852
512.951,66.25
512.961,59.6700019836426
512.971,27.7900009155273
512.981,3.50000023841858
512.991,-8.71000003814697
513.001,-11.9000005722046
513.011,-10.1500005722046
513.018,7.5600004196167
513.028,30.8700008392334
513.038,42.7700004577637
513.048,60.5100021362305
513.058,82.9100036621094
513.068,91.7300033569336
513.078,89.0000076293945
513.088,85.0800018310547
513.098,68.6000061035156
513.108,39.4400024414062
513.118,34.75
513.128,35.6300010681152
513.138,21.1700000762939
513.148,41.1900024414062
513.158,67.4100036621094
513.168,78.8500061035156
513.178,104.720001220703
513.188,110.110008239746
513.198,92.9900054931641
513.208,84.6300048828125
513.217,86.2700042724609
513.227,57.0500030517578
513.237,29.8200016021729
513.247,17.8800010681152
513.257,-18.2000007629395
513.267,-44.6600036621094
513.277,-53.7600021362305
513.287,-85.2900009155273
513.297,-101.850006103516
513.307,-80.390007019043
513.317,-75.0700073242188
513.327,-85.0500030517578
513.337,-59.0800018310547
513.347,-19.0400009155273
513.357,24.6400012969971
513.367,79.620002746582
513.377,98.7000045776367
513.387,88.620002746582
513.397,109.270004272461
513.407,103.740005493164
513.416,63.3800048828125
513.426,24.0100002288818
513.436,-45.7800025939941
513.446,-92.0100021362305
513.456,-117.250007629395
513.466,-169.850006103516
513.476,-216.120010375977
513.486,-222.250015258789
513.496,-215.600006103516
513.506,-187.700012207031
513.516,-160.330001831055
513.526,-120.890007019043
513.536,-57.6400032043457
513.546,1.08000004291534
513.556,26.4900016784668
513.566,28.0000019073486
513.576,23.9400005340576
513.586,20.8900012969971
513.596,11.3400001525879
513.606,10.460000038147
513.611,56.3800010681152
513.621,82.7700042724609
513.631,117.880004882812
513.641,138.980010986328
513.651,148.5
513.661,154.240005493164
513.671,149.34001159668
513.681,132.820007324219
513.691,109.550003051758
513.701,89.390007019043
513.711,54.2800025939941
513.721,8.82000064849854
513.731,-7.91000032424927
513.741,6.26000022888184
513.751,13.9300003051758
513.761,23.730001449585
513.768,55.0200042724609
513.778,76.0500030517578
513.788,88.9300079345703
513.798,119.350006103516
513.808,157.43000793457
513.818,178.950012207031
513.828,210.140014648438
513.838,225.710006713867
513.848,229.000015258789
513.858,219.620010375977
513.868,230.160003662109
513.878,195.020004272461
513.888,150.740005493164
513.898,145.420013427734
513.908,100.200004577637
513.918,46.620002746582
513.928,18.230001449585
513.938,-3.57000017166138
513.948,-15.7100009918213
513.958,-18.4100017547607
513.967,-9.27000045776367
513.977,3.1100001335144
513.987,16.5500011444092
513.997,38.3200035095215
514.007,52.5300025939941
514.017,51.3800010681152
514.027,45.2900009155273
514.037,30.310001373291
514.047,6.44000053405762
514.057,-26.7400016784668
514.067,-69.6100006103516
514.077,-127.470008850098
514.087,-159.950012207031
514.097,-183.050003051758
514.107,-190.960006713867
514.117,-177.690002441406
514.127,-156.550003051758
514.137,-115.18000793457
514.147,-95.0600051879883
514.157,-66.6399993896484
514.166,-17.4300003051758
514.176,24.8800010681152
514.186,57.4000015258789
514.196,83.4000015258789
514.206,87.2500076293945
514.216,68.25
514.226,60.1300010681152
514.236,41.6100006103516
514.246,15.9900007247925
514.256,-6.58000040054321
514.266,-23.8300018310547
514.276,-31.6000022888184
514.286,-42.1400032043457
514.296,-46.3400039672852
514.306,-42.1400032043457
514.316,-45.5700035095215
514.326,-50.8200035095215
514.336,-51.1000022888184
514.346,-43.6100006103516
514.356,-56.8000030517578
514.361,64.3300018310547
514.371,100.900001525879
514.381,114.800003051758
514.391,129.25
514.401,151.160003662109
514.411,155.010009765625
514.421,140.380004882812
514.431,136.220001220703
514.441,144.720001220703
514.451,152.630004882812
514.461,137.580001831055
514.471,76.2600021362305
514.481,-5.07000017166138
514.491,-33.3500022888184
514.501,-35.6300010681152
514.511,-48.680004119873
514.518,-58.6900024414062
514.528,-69.75
514.538,-51.9400024414062
514.548,0.590000033378601
514.558,52.810001373291
514.568,120.150009155273
514.578,189.100006103516
514.588,212.620010375977
514.598,235.230010986328
514.608,261.830017089844
514.618,277.690002441406
514.628,286.300018310547
514.638,266.029998779297
514.648,196.84001159668
514.658,102.51000213623
514.668,31.7100009918213
514.678,-9.41000080108643
514.688,-20.8600006103516
514.698,-26.980001449585
514.708,-70.8400039672852
514.717,-89.4900054931641
514.727,-93.3100051879883
514.737,-108.530006408691
514.747,-125.93000793457
514.757,-130.830001831055
514.767,-111.470008850098
514.777,-44.4500007629395
514.787,-1.36000001430511
514.797,25.9300003051758
514.807,41.2600021362305
514.817,52.6700019836426
514.827,87.2900009155273
514.837,125.26000213623
514.847,147.170013427734
514.857,158.720001220703
514.867,151.410003662109
514.877,103.18000793457
514.887,-18.4100017547607
514.897,-95.0900039672852
514.907,-124.67000579834
514.916,-141.920013427734
514.926,-135.690002441406
514.936,-143.110000610352
514.946,-123.410003662109
514.956,-53.2000007629395
514.966,40.4600028991699
514.976,118.26000213623
514.986,162.920013427734
514.996,174.960006713867
515.006,201.600006103516
515.016,214.370010375977
515.026,201.740005493164
515.036,182.380004882812
515.046,147.030014038086
515.056,98.8400039672852
515.066,65.9700012207031
515.076,22.4000015258789
515.086,-49.6300010681152
515.096,-100.130004882812
515.106,-131.670013427734
515.109,-58.7300033569336
515.119,22.8500003814697
515.129,112.940002441406
515.139,188.860015869141
515.149,240.970016479492
515.159,279.790008544922
515.169,285.529998779297
515.179,259.029998779297
515.189,200.34001159668
515.199,99.5700073242188
515.209,-7.3100004196167
515.219,-95.2300033569336
515.229,-176.540008544922
515.239,-220.950012207031
515.249,-242.93000793457
515.259,-229.700012207031
515.268,-168.910003662109
515.278,-103.740005493164
515.288,-42.8400001525879
515.298,12.0400009155273
515.308,58.9000015258789
515.318,104.93000793457
515.328,143.530014038086
515.338,143.740005493164
515.348,107.900001525879
515.358,83.4400024414062
515.368,82.390007019043
515.378,69.8199996948242
515.388,63.6300048828125
515.398,68.390007019043
515.408,53.3000030517578
515.418,50.2900009155273
515.428,51.6600036621094
515.438,24.1800003051758
515.448,0.380000025033951
515.458,-31.1100006103516
515.467,-72.4800033569336
515.477,-83.4400024414062
515.487,-91.4900054931641
515.497,-88.7200012207031
515.507,-70.8400039672852
515.517,-43.1900024414062
515.527,-25.8600006103516
515.537,12.4600009918213
515.547,58.3800010681152
515.557,79.5900039672852
515.567,107.270004272461
515.577,127.150009155273
515.587,108.67000579834
515.597,93.2000045776367
515.607,87.6000061035156
515.617,71.7800064086914
515.627,37.5200004577637
515.637,18.7600002288818
515.647,16.9000015258789
515.657,25.9700012207031
515.665,33.0699996948242
515.675,46.3000030517578
515.685,50.8900032043457
515.695,56.8000030517578
515.705,68.6700057983398
515.715,55.0900039672852
515.725,16.2400016784668
515.735,-10.6000003814697
515.745,-34.8900032043457
515.755,-74.0200042724609
515.765,-120.820007324219
515.775,-137.060012817383
515.785,-144.060012817383
515.795,-117.980003356934
515.805,-77.2400054931641
515.815,-33.6300010681152
515.825,15.2600011825562
515.835,81.9700012207031
515.845,123.410003662109
515.855,146.160003662109
515.859,90.2600021362305
515.869,39.8300018310547
515.879,14.2400007247925
515.889,12.4900007247925
515.899,8.61000061035156
515.909,11.5100002288818
515.919,25.9700012207031
515.929,15.0800008773804
515.939,-10.0400009155273
515.949,2.90000009536743
515.959,-1.08000004291534
515.969,-38.3900032043457
515.979,-57.8900032043457
515.989,-73.5699996948242
515.999,-97.0500030517578
516.009,-79.7600021362305
516.018,-52.2900009155273
516.028,-38.1100006103516
516.038,19.7400016784668
516.048,80.390007019043
516.058,92.2600021362305
516.068,92.4700012207031
516.078,74.3400039672852
516.088,16.3800010681152
516.098,-43.9900016784668
516.108,-65.870002746582
516.118,-78.2900009155273
516.128,-67.8300018310547
516.138,-12.6300010681152
516.148,22.6100006103516
516.158,34.4000015258789
516.168,59.1100044250488
516.178,67.1600036621094
516.188,48.6100006103516
516.198,22.5700016021729
516.208,-14.9100008010864
516.217,-38.9200019836426
516.227,-9.94000053405762
516.237,32.2700004577637
516.247,29.3300018310547
516.257,33.9800033569336
516.267,57.2200012207031
516.277,78.2600021362305
516.287,67.8300018310547
516.297,38.4300003051758
516.307,13.5400009155273
516.317,13.7500009536743
516.327,38.8500022888184
516.337,44.6600036621094
516.347,26.8400020599365
516.357,16.9400005340576
516.367,-6.33000040054321
516.377,-12.7700004577637
516.387,-6.33000040054321
516.397,-13.3700008392334
516.407,-30.5500011444092
516.415,-17.7400016784668
516.425,-3.25000023841858
516.435,-10.1100006103516
516.445,-8.99000072479248
516.455,3.57000017166138
516.465,4.23000001907349
516.475,18.5500011444092
516.485,37.310001373291
516.495,25.8300018310547
516.505,21.3800010681152
516.515,25.6500015258789
516.525,24.5300006866455
516.535,34.9300003051758
516.545,39.060001373291
516.555,38.6700019836426
516.565,30.730001449585
516.575,25.7200012207031
516.585,10.3200006484985
516.595,-5.1100001335144
516.605,-5.5600004196167
516.609,15.1500005722046
516.619,26.560001373291
516.629,27.3000011444092
516.639,12.1800003051758
516.649,-13.0200004577637
516.659,-42.4500007629395
516.669,-49.310001373291
516.679,-32.7200012207031
516.689,-27.1600017547607
516.699,-9.41000080108643
516.709,29.4700012207031
516.719,60.0200042724609
516.729,78.640007019043
516.739,94.5300064086914
516.749,93.9700012207031
516.759,82.2800064086914
516.768,69.0200042724609
516.778,57.7800025939941
516.788,30.060001373291
516.798,7.52000045776367
516.808,10.7400007247925
516.818,6.23000049591064
516.828,-3.99000024795532
516.838,1.6100001335144
516.848,-6.65000009536743
516.858,-21.7000007629395
516.868,-19.8800010681152
516.878,-33.7700004577637
516.888,-50.120002746582
516.898,-28.5200004577637
516.908,-21.2400016784668
516.918,-8.43000030517578
516.928,30.2700023651123
516.938,50.8200035095215
516.948,51.060001373291
516.958,61.0700035095215
516.967,59.0100021362305
516.977,43.3300018310547
516.987,39.9700012207031
516.997,14.6600008010864
517.007,-24.6700019836426
517.017,-41.7900009155273
517.027,-44.4100036621094
517.037,-40.8400001525879
517.047,-29.2200012207031
517.057,-20.5400009155273
517.067,-5.60000038146973
517.077,9.69000053405762
517.087,13.4700002670288
517.097,14.7300004959106
517.107,24.8800010681152
517.117,23.5200004577637
517.127,21.5200004577637
517.137,28.4500007629395
517.147,38.2900009155273
517.157,48.3000030517578
517.165,56.1400032043457
517.175,52.9200019836426
517.185,29.2600021362305
517.195,4.30000019073486
517.205,-10.7800006866455
517.215,-36.1900024414062
517.225,-56.0300025939941
517.235,-54.3500022888184
517.245,-42.0000038146973
517.255,-19.6700000762939
517.265,-9.03000068664551
517.275,-12.2800006866455
517.285,-14.7300004959106
517.295,-15.6800003051758
517.305,-34.4000015258789
517.315,-53.4400024414062
517.325,-55.120002746582
517.335,-49.2800025939941
517.345,-50.1500015258789
517.355,-50.6100006103516
517.359,7.4200005531311
517.369,8.68000030517578
517.379,6.51000022888184
517.389,9.48000049591064
517.399,12.3900003433228
517.409,4.23000001907349
517.419,-4.09000015258789
517.429,3.99000024795532
517.439,7.21000051498413
517.449,-2.80000019073486
517.459,-8.82000064849854
517.469,-16.5200004577637
517.479,-23.9400005340576
517.489,-14.5900011062622
517.499,-14.8400011062622
517.509,-21.7000007629395
517.518,-5.21000003814697
517.528,6.33000040054321
517.538,-4.51000022888184
517.548,9.66000080108643
517.558,16.5500011444092
517.568,5.1100001335144
517.578,15.5000009536743
517.588,24.9900016784668
517.598,18.4400005340576
517.608,23.5900020599365
517.618,30.2400016784668
517.628,28.0000019073486
517.638,33.8400001525879
517.648,53.0900039672852
517.658,55.0200042724609
517.668,43.1500015258789
517.678,26.810001373291
517.688,-3.60000014305115
517.698,-33.6300010681152
517.708,-34.1599998474121
517.717,-55.2600021362305
517.727,-82.1100006103516
517.737,-49.9100036621094
517.747,-1.6100001335144
517.757,0.240000009536743
517.767,1.6800000667572
517.777,37.3800010681152
517.787,69.370002746582
517.797,64.0800018310547
517.807,43.8500022888184
517.817,27.9300022125244
517.827,20.9300003051758
517.837,-6.54000043869019
517.847,-26.6000003814697
517.857,-38.6000022888184
517.867,-52.180004119873
517.877,-57.7100028991699
517.887,-62.2600021362305
517.897,-61.3200035095215
517.907,-44.2700004577637
517.915,-20.5800018310547
517.925,-6.96000051498413
517.935,-1.47000002861023
517.945,3.88000011444092
517.955,13.8600006103516
517.965,14.2400007247925
517.975,-0.560000002384186
517.985,-3.99000024795532
517.995,8.36000061035156
518.005,13.8200006484985
518.015,14.2100009918213
518.025,23.5900020599365
518.035,40.5300025939941
518.045,39.1300010681152
518.055,24.0800018310547
518.065,15.3300008773804
518.075,0.770000040531158
518.085,-20.6800003051758
518.095,-42.9400024414062
518.105,-38.5700035095215
518.109,41.370002746582
518.119,56.0700035095215
518.129,68.1800003051758
518.139,86.0600051879883
518.149,90.5800018310547
518.159,76.5400009155273
518.169,69.7900009155273
518.179,90.4700012207031
518.189,109.830001831055
518.199,109.340003967285
518.209,148.050003051758
518.219,196.870010375977
518.229,224.380004882812
518.239,252.870010375977
518.249,275.830017089844
518.259,287.870025634766
518.268,282.900024414062
518.278,294.070007324219
518.288,303.27001953125
518.298,299
518.308,284.160003662109
518.318,254.170013427734
518.328,227.320007324219
518.338,171.220001220703
518.348,120.43000793457
518.358,83.9300003051758
518.368,41.8900032043457
518.378,2.73000001907349
518.388,-4.30000019073486
518.398,7.94000053405762
518.408,23.4100017547607
518.418,28.5200004577637
518.428,32.3400001525879
518.438,46.9000015258789
518.448,82.7700042724609
518.458,105.490005493164
518.467,108.600006103516
518.477,120.820007324219
518.487,142.170013427734
518.497,162.890014648438
518.507,182.870010375977
518.517,190.050003051758
518.527,182.000015258789
518.537,184.940002441406
518.547,181.190002441406
518.557,163.200012207031
518.567,124.42000579834
518.577,95.370002746582
518.587,56.2400016784668
518.597,20.6800003051758
518.607,4.41000032424927
518.617,-13.5100002288818
518.627,-16.7600002288818
518.637,-5.74000024795532
518.647,11.9000005722046
518.657,21.0300006866455
518.665,14.5600004196167
518.675,-6.44000053405762
518.685,-15.3300008773804
518.695,-27.1900005340576
518.705,-52.0400009155273
518.715,-73.9900054931641
518.725,-83.120002746582
518.735,-54.7400016784668
518.745,-47.3900032043457
518.755,-42.8400001525879
518.765,-31.1500015258789
518.775,-19.5300006866455
518.785,19.4600009918213
518.795,36.1900024414062
518.805,22.0800018310547
518.815,18.480001449585
518.825,10.0100002288818
518.835,9.3100004196167
518.845,-4.0600004196167
518.855,-46.060001373291
518.859,-109.720008850098
518.869,-128.380004882812
518.879,-128.100006103516
518.889,-103.600006103516
518.899,-98.2800064086914
518.909,-114.380004882812
518.919,-141.780014038086
518.929,-145.210006713867
518.939,-102.790008544922
518.949,-48.4400024414062
518.959,-21.1400012969971
518.969,14.7300004959106
518.979,66.3600006103516
518.989,122.360008239746
518.999,178.600006103516
519.009,212.410003662109
519.018,209.790008544922
519.028,214.690017700195
519.038,222.070007324219
519.048,216.890014648438
519.058,178.780014038086
519.068,91.3100051879883
519.078,43.2600021362305
519.088,8.68000030517578
519.098,-3.67000007629395
519.108,-14.9100008010864
519.118,-49.310001373291
519.128,-50.0100021362305
519.138,-46.3000030517578
519.148,-21.7700004577637
519.158,21.2100009918213
519.168,5.35000038146973
519.178,-37.310001373291
519.188,-50.2900009155273
519.198,-47.9800033569336
519.208,-60.930004119873
519.216,-78.8200073242188
519.226,-99.9200057983398
519.236,-103.67000579834
519.246,-77.0700073242188
519.256,-18.0900001525879
519.266,39.6500015258789
519.276,42.6600036621094
519.286,44.2400016784668
519.296,65.4500045776367
519.306,94.7400054931641
519.316,115.950004577637
519.326,134.639999389648
519.336,109.550003051758
519.346,95.1300048828125
519.356,94.5700073242188
519.366,94.9200057983398
519.376,92.2600021362305
519.386,62.3000030517578
519.396,28.8700008392334
519.406,4.13000011444092
519.415,-19.8400001525879
519.425,-39.8300018310547
519.435,-61.2500038146973
519.445,-86.5900039672852
519.455,-121.270004272461
519.465,-102.060005187988
519.475,-105.870002746582
519.485,-112.870002746582
519.495,-92.0500030517578
519.505,-78.0500030517578
519.515,-63.9400024414062
519.525,-32.370002746582
519.535,-20.5400009155273
519.545,18.2000007629395
519.555,60.060001373291
519.565,88.2700042724609
519.575,138.770004272461
519.585,177.870010375977
519.595,219.170013427734
519.605,256.580017089844
519.609,276.150024414062
519.619,237.860015869141
519.629,179.970001220703
519.639,81.0200042724609
519.649,21.2800006866455
519.659,-18.5100002288818
519.669,-18.2700004577637
519.679,-24.6000003814697
519.689,-21.5200004577637
519.699,2.90000009536743
519.709,47.1400032043457
519.719,125.370002746582
519.729,179.720001220703
519.739,192.810012817383
519.749,194.600006103516
519.759,197.750015258789
519.768,190.640014648438
519.778,141.990005493164
519.788,67.4800033569336
519.798,-15.6400003433228
519.808,-96.0400009155273
519.818,-154.310012817383
519.828,-198.760009765625
519.838,-212.660003662109
519.848,-230.120010375977
519.858,-217.350006103516
519.868,-171.43000793457
519.878,-101.220001220703
519.888,-46.1300010681152
519.898,22.0800018310547
519.908,70.8400039672852
519.918,111.020004272461
519.928,127.290008544922
519.938,139.050003051758
519.948,144.230010986328
519.958,126.030006408691
519.966,106.68000793457
519.976,103.770004272461
519.986,117.350006103516
519.996,154.240005493164
520.006,166.320007324219
520.016,167.540008544922
520.026,164.600006103516
520.036,161.420013427734
520.046,133.940002441406
520.056,86.9700012207031
520.066,31.6000022888184
520.076,-48.4000015258789
520.086,-102.340003967285
520.096,-148.050003051758
520.106,-175.630004882812
520.116,-155.990005493164
520.126,-131.84001159668
520.136,-90.8200073242188
520.146,-35.8400001525879
520.156,4.55000019073486
520.165,42.310001373291
520.175,73.4600067138672
520.185,78.2600021362305
520.195,55.0900039672852
520.205,17.6700000762939
520.215,-30.3400020599365
520.225,-51.7300033569336
520.235,-76.8600006103516
520.245,-99.1900024414062
520.255,-103.110008239746
520.265,-101.640007019043
520.275,-85.2900009155273
520.285,-60.6500015258789
520.295,-41.3300018310547
520.305,-37.620002746582
520.315,-34.4400024414062
520.325,-24.2900009155273
520.335,-10.4300003051758
520.345,0.240000009536743
520.355,4.58000040054321
520.36,86.6900024414062
520.37,92.4000015258789
520.38,97.1600036621094
520.39,119.800003051758
520.4,142.940002441406
520.41,149.520004272461
520.42,153.790008544922
520.43,151.93000793457
520.44,157.110000610352
520.45,153.470001220703
520.46,148.260009765625
520.47,125.020004272461
520.48,90.4000015258789
520.49,61.6700019836426
520.5,51.9400024414062
520.51,32.0900001525879
520.518,25.7900009155273
520.528,17.5300006866455
520.538,20.8600006103516
520.548,29.5700016021729
520.558,23.9700012207031
520.568,7.1700005531311
520.578,-1.6100001335144
520.588,-4.69000005722046
520.598,-0.100000001490116
520.608,5.46000003814697
520.618,4.62000036239624
520.628,2.41000008583069
520.638,3.3600001335144
520.648,5.77000045776367
520.658,-1.22000002861023
520.668,-29.5000019073486
520.678,-55.930004119873
520.688,-81.4800033569336
520.698,-103.350006103516
520.708,-116.830001831055
520.716,-126.310005187988
520.726,-127.710006713867
520.736,-108.950004577637
520.746,-75.3500061035156
520.756,-30.6900005340576
520.766,4.23000001907349
520.776,24.810001373291
520.786,29.7500019073486
520.796,37.3400001525879
520.806,50.0500030517578
520.816,62.2300033569336
520.826,50.5400009155273
520.836,37.5900001525879
520.846,33.810001373291
520.856,37.1300010681152
520.866,45.5300025939941
520.876,42.4900016784668
520.886,41.4700012207031
520.896,42.3500022888184
520.906,55.5800018310547
520.915,81.3400039672852
520.925,105.840003967285
520.935,127.850006103516
520.945,127.960006713867
520.955,129.5
520.965,133.980010986328
520.975,141.150009155273
520.985,164.990005493164
520.995,196.980010986328
521.005,207.370010375977
521.015,204.920013427734
521.025,199.810012817383
521.035,191.730010986328
521.045,156.060012817383
521.055,105.590003967285
521.065,43.7800025939941
521.075,5.07000017166138
521.085,-12.6700010299683
521.095,-23.5500011444092
521.105,-45.3900032043457
521.109,37.5200004577637
521.119,41.2300033569336
521.129,49.560001373291
521.139,57.4700012207031
521.149,49.1700019836426
521.159,30.2000007629395
521.169,12.9500007629395
521.179,-0.800000011920929
521.189,-22.3600006103516
521.199,-39.2000007629395
521.209,-58.870002746582
521.219,-75.9800033569336
521.229,-90.370002746582
521.239,-99.8200073242188
521.249,-101.600006103516
521.259,-93.0300064086914
521.268,-84.9100036621094
521.278,-82.8100051879883
521.288,-72.7300033569336
521.298,-57.4700012207031
521.308,-26.2500019073486
521.318,-17.810001373291
521.328,-8.68000030517578
521.338,-4.62000036239624
521.348,6.79000043869019
521.358,13.0900001525879
521.368,2.94000005722046
521.378,2.87000012397766
521.388,8.64000034332275
521.398,14.3800010681152
521.408,7.70000028610229
521.418,-2.17000007629395
521.428,-8.15000057220459
521.438,-4.48000001907349
521.448,-9.48000049591064
521.458,-26.0700016021729
521.466,-31.7100009918213
521.476,-28.7700004577637
521.486,-20.4000015258789
521.496,-26.2500019073486
521.506,-24.2900009155273
521.516,-15.6800003051758
521.526,-18.6200008392334
521.536,-49.3500022888184
521.546,-64.3300018310547
521.556,-49.7000007629395
521.566,-35.9400024414062
521.576,-41.5800018310547
521.586,-21.730001449585
521.596,2.55000019073486
521.606,1.6800000667572
521.616,-18.8300018310547
521.626,-41.4000015258789
521.636,-47.7000007629395
521.646,-44.1300010681152
521.656,-59.2500038146973
521.665,-65.4100036621094
521.675,-59.9900016784668
521.685,-56.4900016784668
521.695,-66.6000061035156
521.705,-55.930004119873
521.715,-36.7800025939941
521.725,-8.5
521.735,9.34000015258789
521.745,26.6000003814697
521.755,33.9800033569336
521.765,32.1300010681152
521.775,3.85000014305115
521.785,-27.6100006103516
521.795,-40.4200019836426
521.805,-52.5700035095215
521.815,-67.0200042724609
521.825,-58.9700012207031
521.835,-36.4000015258789
521.845,-23.2400016784668
521.855,-20.6100006103516
521.86,-87.1800079345703
521.87,-82.2100067138672
521.88,-75
521.89,-51.3800010681152
521.9,-25.9300003051758
521.91,18.3700008392334
521.92,61.0400047302246
521.93,89.9100036621094
521.94,115.01000213623
521.95,141.010009765625
521.96,155.150009155273
521.97,128.410003662109
521.98,90.0500030517578
521.99,53.7200012207031
522,25.4100017547607
522.01,9.41000080108643
522.018,-25.3000011444092
522.028,-56.3800010681152
522.038,-82.9500045776367
522.048,-112.840003967285
522.058,-131.560012817383
522.068,-144.830001831055
522.078,-140.700012207031
522.088,-134.43000793457
522.098,-128.100006103516
522.108,-125.370002746582
522.118,-114.620002746582
522.128,-117.770004272461
522.138,-139.020004272461
522.148,-170.34001159668
522.158,-205.940002441406
522.168,-211.330017089844
522.178,-202.330017089844
522.188,-186.690002441406
522.198,-158.580001831055
522.208,-124.910003662109
522.216,-71.5400009155273
522.226,-24.0800018310547
522.236,9.97000026702881
522.246,8.22000026702881
522.256,12.7700004577637
522.266,24.7100009918213
522.276,38.810001373291
522.286,48.3000030517578
522.296,41.3000030517578
522.306,32.7600021362305
522.316,34.6100006103516
522.326,28.8400020599365
522.336,25.8600006103516
522.346,27.5800018310547
522.356,11.6500005722046
522.366,-1.19000005722046
522.376,-16.480001449585
522.386,-50.2600021362305
522.396,-83.120002746582
522.406,-92.7500076293945
522.415,-91.4200057983398
522.425,-66.8100051879883
522.435,-35.5900001525879
522.445,-10.7400007247925
522.455,58.870002746582
522.465,133.770004272461
522.475,205.760009765625
522.485,248.640014648438
522.495,280.630004882812
522.505,310.200012207031
522.515,308.070007324219
522.525,301.280029296875
522.535,277.510009765625
522.545,247.760009765625
522.555,205.450012207031
522.565,149.100006103516
522.575,84.2800064086914
522.585,14.2800006866455
522.595,-56.1700019836426
522.605,-101.67000579834
522.609,-104.370002746582
522.619,-80.0800018310547
522.629,-58.4800033569336
522.639,-28.3500022888184
522.649,-1.75000011920929
522.659,22.3600006103516
522.669,12.5300006866455
522.679,-18.230001449585
522.689,-57.9200019836426
522.699,-79.8300018310547
522.709,-77.4900054931641
522.719,-89.5300064086914
522.729,-82.6700057983398
522.739,-80.4300003051758
522.749,-61.4600028991699
522.759,-31.0800018310547
522.768,-23.9000015258789
522.778,-60.5100021362305
522.788,-110.810005187988
522.798,-167.890014648438
522.808,-221.860015869141
522.818,-256.440002441406
522.828,-282.52001953125
522.838,-278.390014648438
522.848,-222.950012207031
522.858,-129.880004882812
522.868,-74.2700042724609
522.878,-11.3700008392334
522.888,26.2500019073486
522.898,47.9100036621094
522.908,67.8600006103516
522.918,43.2600021362305
522.928,-25.3400020599365
522.938,-93.8000030517578
522.948,-135.730010986328
522.958,-150.390014648438
522.966,-150.530014038086
522.976,-150.850006103516
522.986,-145.460006713867
522.996,-124.000007629395
523.006,-71.6800003051758
523.016,-26.6000003814697
523.026,0.0700000002980232
523.036,27.6800022125244
523.046,50.2200012207031
523.056,79.6900024414062
523.066,118.330001831055
523.076,127.500007629395
523.086,132.720001220703
523.096,139.190002441406
523.106,136.389999389648
523.116,131.950012207031
523.126,102.720001220703
523.136,65.2400054931641
523.146,35.6300010681152
523.156,12.0000009536743
523.165,-5.04000043869019
523.175,-25.0900020599365
523.185,-55.0500030517578
523.195,-80.9500045776367
523.205,-97.4000015258789
523.215,-108.18000793457
523.225,-109.200004577637
523.235,-113.500007629395
523.245,-112.070007324219
523.255,-97.9300079345703
523.265,-64.5699996948242
523.275,-27.8900012969971
523.285,10.9900007247925
523.295,55.9600028991699
523.305,103.040008544922
523.315,153.510009765625
523.325,209.020004272461
523.335,229.000015258789
523.345,233.830017089844
523.355,211.120010375977
523.36,-84.0000076293945
523.37,-124.280006408691
523.38,-139.650009155273
523.39,-156.310012817383
523.4,-171.500015258789
523.41,-161.030014038086
523.42,-119.350006103516
523.43,-53.060001373291
523.44,-2.73000001907349
523.45,9.13000011444092
523.46,4.76000022888184
523.47,0.800000011920929
523.48,8.82000064849854
523.49,13.7200002670288
523.5,9.69000053405762
523.51,1.82000005245209
523.518,7.63000059127808
523.528,24.4600009918213
523.538,27.5800018310547
523.548,13.3300008773804
523.558,-12.4200010299683
523.568,-43.8500022888184
523.578,-69.0200042724609
523.588,-96.7400054931641
523.598,-125.93000793457
523.608,-151.790008544922
523.618,-158.93000793457
523.628,-146.93000793457
523.638,-120.220008850098
523.648,-83.890007019043
523.658,-45.0400009155273
523.668,-8.78000068664551
523.678,21.980001449585
523.688,44.0300025939941
523.698,40.0700035095215
523.708,13.6100006103516
523.717,-5.42000007629395
523.727,-37.2000007629395
523.737,-60.4800033569336
523.747,-76.8200073242188
523.757,-99.3300018310547
523.767,-101.500007629395
523.777,-91.140007019043
523.787,-64.0800018310547
523.797,-33.8400001525879
523.807,-8.71000003814697
523.817,6.02000045776367
523.827,20.2600002288818
523.837,44.2000007629395
523.847,49.310001373291
523.857,50.3300018310547
523.867,48.930004119873
523.877,31.3900012969971
523.887,20.1900005340576
523.897,1.50000011920929
523.907,-26.810001373291
523.915,-19.1100006103516
523.925,5.88000011444092
523.935,-2.45000004768372
523.945,73.8800048828125
523.955,123.230003356934
523.965,101.880004882812
523.975,89.7000045776367
523.985,81.3400039672852
523.995,63.6300048828125
524.005,54.9100036621094
524.015,6.47000026702881
524.025,-37.7300033569336
524.035,-65.8000030517578
524.045,-96.7400054931641
524.055,-109.230003356934
524.065,-73.0800018310547
524.075,-55.8900032043457
524.085,-62.5800018310547
524.095,-27.9300022125244
524.105,0.870000064373016
524.11,-31.810001373291
524.12,-10.7800006866455
524.13,-17.7100009918213
524.14,-34.0500030517578
524.15,-13.6500005722046
524.16,19.7000007629395
524.17,55.7500038146973
524.18,77.8000030517578
524.19,70.7700042724609
524.2,62.2600021362305
524.21,85.3300018310547
524.22,89.6700057983398
524.23,55.1900024414062
524.24,21.1400012969971
524.25,2.41000008583069
524.26,-44.5900039672852
524.268,-65.3400039672852
524.278,-73.640007019043
524.288,-129.220001220703
524.298,-157.920013427734
524.308,-151.270004272461
524.318,-124.880004882812
524.328,-91.5600051879883
524.338,-50.5000038146973
524.348,-19.9100017547607
524.358,34.4000015258789
524.368,73.0800018310547
524.378,67.0200042724609
524.388,42.870002746582
524.398,39.4800033569336
524.408,31.0100021362305
524.418,-17.8500003814697
524.428,-26.810001373291
524.438,-15.6400003433228
524.448,-3.60000014305115
524.458,-20.4000015258789
524.467,-42.6600036621094
524.477,-39.2700004577637
524.487,-25.8600006103516
524.497,-34.2300033569336
524.507,-14.6600008010864
524.517,-30.2400016784668
524.527,-11.6500005722046
524.537,-8.01000022888184
524.547,-28.1700019836426
524.557,-39.8300018310547
524.567,-16.6900005340576
524.577,-17.1100006103516
524.587,-28.8400020599365
524.597,-23.310001373291
524.607,-7.77000045776367
524.617,20.8900012969971
524.627,26.2800006866455
524.637,0.590000033378601
524.647,7.98000049591064
524.657,17.5
524.665,-10.1100006103516
524.675,5.25000047683716
524.685,-2.90000009536743
524.695,-28.7000007629395
524.705,-26.5300006866455
524.715,-72.9000015258789
524.725,-89.390007019043
524.735,-77
524.745,-76.5800018310547
524.755,-50.7800025939941
524.765,-35.9099998474121
524.775,-37.1000022888184
524.785,-4.44000005722046
524.795,13.2600002288818
524.805,21.2800006866455
524.815,-12.6300010681152
524.825,-15.1500005722046
524.835,2.41000008583069
524.845,3.57000017166138
524.855,-1.12000000476837
524.86,-52.3200035095215
524.87,-73.390007019043
524.88,-67.5800018310547
524.89,-57.2600021362305
524.9,-15.0500011444092
524.91,19.4900016784668
524.92,37.6900024414062
524.93,53.2700042724609
524.94,66.8500061035156
524.95,72.6600036621094
524.96,53.7600021362305
524.97,41.2300033569336
524.98,19.2100009918213
524.99,-29.5700016021729
525,-71.3600006103516
525.01,-75.7400054931641
525.018,-80.6000061035156
525.028,-89.8800048828125
525.038,-69.370002746582
525.048,-23.3400020599365
525.058,21.5900001525879
525.068,51.2700042724609
525.078,101.530006408691
525.088,153.540008544922
525.098,177.940002441406
525.108,203.070007324219
525.118,218.400009155273
525.128,206.150009155273
525.138,177.800003051758
525.148,175.630004882812
525.158,151.410003662109
525.168,102.340003967285
525.178,43.5700035095215
525.188,-7.80000019073486
525.198,-57.8900032043457
525.208,-108.320007324219
525.217,-142.900009155273
525.227,-153.400009155273
525.237,-140.660003662109
525.247,-117.320007324219
525.257,-63.8400039672852
525.267,-2.48000001907349
525.277,58.0300025939941
525.287,136.780014038086
525.297,195.860015869141
525.307,227.040008544922
525.317,242.160018920898
525.327,250.810012817383
525.337,236.280014038086
525.347,207.830017089844
525.357,190.990005493164
525.367,158.270004272461
525.377,124.600006103516
525.387,62.930004119873
525.397,3.29000020027161
525.407,-63.4900016784668
525.415,-118.050003051758
525.425,-160.860000610352
525.435,-179.440002441406
525.445,-195.370010375977
525.455,-224.940017700195
525.465,-227.040008544922
525.475,-213.920013427734
525.485,-199.080001831055
525.495,-184.760009765625
525.505,-158.650009155273
525.515,-142.760009765625
525.525,-92.640007019043
525.535,-25.9700012207031
525.545,1.89000010490417
525.555,13.7500009536743
525.565,24.5000019073486
525.575,36.2200012207031
525.585,54.4900016784668
525.595,55.6100044250488
525.605,25.1600017547607
525.61,-83.8600006103516
525.62,-120.500007629395
525.63,-141.5
525.64,-142.550003051758
525.65,-153.330001831055
525.66,-169.640014648438
525.67,-167.020004272461
525.68,-122.18000793457
525.69,-58.620002746582
525.7,-34.9600028991699
525.71,-8.96000003814697
525.72,11.8300008773804
525.73,36.75
525.74,67.4800033569336
525.75,70.4900054931641
525.76,51.7600021362305
525.768,26.0700016021729
525.778,6.16000032424927
525.788,-27.1200008392334
525.798,-94.9900054931641
525.808,-155.640014648438
525.818,-172.720001220703
525.828,-137.130004882812
525.838,-80.7400054931641
525.848,-31.6000022888184
525.858,5.95000028610229
525.868,27.8600006103516
525.878,70.2100067138672
525.888,77.1000061035156
525.898,83.9600067138672
525.908,80.390007019043
525.918,76.7900009155273
525.928,87.4300079345703
525.938,41.2300033569336
525.948,-16.8000011444092
525.958,-62.4700012207031
525.967,-108.990005493164
525.977,-155.640014648438
525.987,-189.560012817383
525.997,-204.470016479492
526.007,-202.260009765625
526.017,-179.130004882812
526.027,-123.900009155273
526.037,-97.6800079345703
526.047,-93.9700012207031
526.057,-44.620002746582
526.067,39.4100036621094
526.077,102.230003356934
526.087,149.200012207031
526.097,157.43000793457
526.107,136.740005493164
526.117,131.490005493164
526.127,101.990005493164
526.137,53.620002746582
526.147,-9.45000076293945
526.157,-77.8400039672852
526.165,-141.920013427734
526.175,-163.380004882812
526.185,-171.390014648438
526.195,-197.330001831055
526.205,-172.200012207031
526.215,-90.1900024414062
526.225,-32.1300010681152
526.235,1.29000008106232
526.245,13.7900009155273
526.255,10.6700000762939
526.265,4.30000019073486
526.275,1.54000008106232
526.285,-5.60000038146973
526.295,-31.3200016021729
526.305,-32.5100021362305
526.315,9.27000045776367
526.325,72.7600021362305
526.335,133.279998779297
526.345,205.240005493164
526.355,253.890014648438
526.36,14.4900007247925
526.37,-36.4300003051758
526.38,-95.8600082397461
526.39,-138.110000610352
526.4,-167.790008544922
526.41,-183.640014648438
526.42,-187.880004882812
526.43,-156.100006103516
526.44,-124.250007629395
526.45,-119.070007324219
526.46,-101.850006103516
526.47,-49.2400016784668
526.48,2.80000019073486
526.49,45.9500007629395
526.5,97.8200073242188
526.51,167.370010375977
526.518,227.810012817383
526.528,255.950012207031
526.538,246.260009765625
526.548,198.59001159668
526.558,118.580001831055
526.568,39.5800018310547
526.578,-34.7200012207031
526.588,-117.560005187988
526.598,-173.740005493164
526.608,-201.390014648438
526.618,-231.730010986328
526.628,-259.52001953125
526.638,-258.400024414062
526.648,-244.400009155273
526.658,-212.550003051758
526.668,-141.960006713867
526.678,-63.5900039672852
526.688,-1.54000008106232
526.698,82.1100006103516
526.708,181.750015258789
526.717,217.030014038086
526.727,186.34001159668
526.737,138.560012817383
526.747,68.5300064086914
526.757,-5.95000028610229
526.767,-50.5000038146973
526.777,-54.0000038146973
526.787,-66.1800003051758
526.797,-64.5400009155273
526.807,-28.730001449585
526.817,-39.8300018310547
526.827,-27.6100006103516
526.837,35.4200019836426
526.847,71.4300003051758
526.857,80.3200073242188
526.867,86.7300033569336
526.877,107.410003662109
526.887,116.090003967285
526.897,101.640007019043
526.907,93.5500030517578
526.911,-39.3000030517578
526.921,-48.120002746582
526.931,-28.7000007629395
526.941,-37.060001373291
526.951,-38.3200035095215
526.961,-23.6600017547607
526.971,-19.3500003814697
526.981,-23.8300018310547
526.991,-5.88000011444092
527.001,-16.1300010681152
527.011,-57.0500030517578
527.021,-33.2800025939941
527.031,2.87000012397766
527.041,5.1100001335144
527.051,-20.5400009155273
527.061,-40.3500022888184
527.069,-49.4900016784668
527.079,-52.1100006103516
527.089,-46.6900024414062
527.099,-48.6100006103516
527.109,-42.0700035095215
527.119,-16.9400005340576
527.129,2.80000019073486
527.139,5.32000017166138
527.149,4.34000015258789
527.159,12.1100006103516
527.169,17.1800003051758
527.179,14.8700008392334
527.189,14.0700006484985
527.199,19.810001373291
527.209,13.5100002288818
527.219,14.7000007629395
527.229,21.7000007629395
527.239,37.8000030517578
527.249,34.6500015258789
527.259,16.1700000762939
527.268,6.16000032424927
527.278,-13.5100002288818
527.288,-27.4000015258789
527.298,-24.810001373291
527.308,-11.5500001907349
527.318,3.74000024795532
527.328,36.75
527.338,82.0000076293945
527.348,115.780006408691
527.358,145.350006103516
527.368,182.800003051758
527.378,218.43000793457
527.388,216.190017700195
527.398,192.220016479492
527.408,150.810012817383
527.418,93.6600036621094
527.428,24.1100006103516
527.438,-39.6900024414062
527.448,-89.4900054931641
527.458,-108.67000579834
527.467,-98.1700057983398
527.477,-85.4300003051758
527.487,-42.8400001525879
527.497,1.40000009536743
527.507,33.3900032043457
527.517,57.2600021362305
527.527,69.7900009155273
527.537,77.5600051879883
527.547,72.9700012207031
527.557,53.9700012207031
527.567,47.7400016784668
527.577,42.0000038146973
527.587,38.5700035095215
527.597,42.5200004577637
527.607,66.4300003051758
527.617,89.6700057983398
527.627,99.4300079345703
527.637,104.720001220703
527.647,112.840003967285
527.657,127.010009765625
527.661,183.610015869141
527.671,214.020004272461
527.681,238.100006103516
527.691,246.710006713867
527.701,251.400009155273
527.711,234.670013427734
527.721,214.34001159668
527.731,190.330001831055
527.741,153.960006713867
527.751,112.800003051758
527.761,75.25
527.771,53.1600036621094
527.781,41.5800018310547
527.791,32.5100021362305
527.801,30.2700023651123
527.811,19.1100006103516
527.819,27.0500011444092
527.829,30.9700012207031
527.839,22.5400009155273
527.849,23.2700004577637
527.859,21.7000007629395
527.869,26.1100006103516
527.879,13.9600009918213
527.889,19.8400001525879
527.899,5.88000011444092
527.909,14.0700006484985
527.919,20.4700012207031
527.929,1.85000014305115
527.939,1.75000011920929
527.949,-3.53000020980835
527.959,14.6300010681152
527.969,5.1100001335144
527.979,-1.15000009536743
527.989,10.7800006866455
527.999,27.3300018310547
528.009,51.0300025939941
528.018,44.9700012207031
528.028,44.3400039672852
528.038,53.0200042724609
528.048,46.5800018310547
528.058,49.2100028991699
528.068,26.4200019836426
528.078,2.80000019073486
528.088,6.58000040054321
528.098,17.9900016784668
528.108,40.4900016784668
528.118,47.4900016784668
528.128,62.4000015258789
528.138,77.9800033569336
528.148,100.030006408691
528.158,117.740005493164
528.168,93.3800048828125
528.178,47.3200035095215
528.188,21.310001373291
528.198,-3.46000027656555
528.208,-8.26000022888184
528.217,-24.6000003814697
528.227,-40.3200035095215
528.237,-14.3500003814697
528.247,23.2400016784668
528.257,62.8900032043457
528.267,93.7600021362305
528.277,99.0800018310547
528.287,103.770004272461
528.297,110.810005187988
528.307,120.050003051758
528.317,117.490005493164
528.327,68.7400054931641
528.337,22.5400009155273
528.347,-13.2300004959106
528.357,-36.8900032043457
528.367,-21.8400001525879
528.377,-2.17000007629395
528.387,0.350000023841858
528.397,6.8600001335144
528.407,12.6700010299683
528.411,-123.440002441406
528.421,-136.950012207031
528.431,-135.900009155273
528.441,-150.810012817383
528.451,-176.500015258789
528.461,-169.290008544922
528.471,-128.270004272461
528.481,-61.4200019836426
528.491,22.9900016784668
528.501,68.25
528.511,110.390007019043
528.521,151.060012817383
528.531,189.280014038086
528.541,229.980010986328
528.551,256.790008544922
528.561,222.070007324219
528.569,177.380004882812
528.579,166.600006103516
528.589,142.310012817383
528.599,105.350006103516
528.609,78.9200057983398
528.619,47.2100028991699
528.629,32.1300010681152
528.639,49.9400024414062
528.649,59.430004119873
528.659,64.4300003051758
528.669,57.8200035095215
528.679,48.0500030517578
528.689,30.3800010681152
528.699,4.58000040054321
528.709,-26.8800010681152
528.719,-70.2400054931641
528.729,-109.620002746582
528.739,-139.370010375977
528.749,-166.070007324219
528.759,-182.84001159668
528.768,-166.530014038086
528.778,-156.34001159668
528.788,-120.610008239746
528.798,-92.5000076293945
528.808,-62.930004119873
528.818,-12.5600004196167
528.828,30.3400020599365
528.838,65.1300048828125
528.848,88.2300033569336
528.858,97.0500030517578
528.868,98.9100036621094
528.878,113.400009155273
528.888,114.830001831055
528.898,97.2300033569336
528.908,83.8200073242188
528.918,51.7600021362305
528.928,49.2400016784668
528.938,40.1800003051758
528.948,17.5
528.958,-1.08000004291534
528.967,-2.48000001907349
528.977,-1.6800000667572
528.987,-0.0700000002980232
528.997,-19.2100009918213
529.007,-68.390007019043
529.017,-110.980003356934
529.027,-120.92000579834
529.037,-126.980003356934
529.047,-123.970008850098
529.057,-108.640007019043
529.067,-85.120002746582
529.077,-14.0000009536743
529.087,73.0400009155273
529.097,143.710006713867
529.107,181.330001831055
529.117,188.160003662109
529.127,181.790008544922
529.137,186.270004272461
529.147,173.950012207031
529.157,147.070007324219
529.161,-59.2200012207031
529.171,-125.68000793457
529.181,-173.84001159668
529.191,-175.800003051758
529.201,-148.920013427734
529.211,-114.900009155273
529.221,-90.7500076293945
529.231,-91.3500061035156
529.241,-81.9700012207031
529.251,-65.0300064086914
529.261,-44.1300010681152
529.271,-26.560001373291
529.281,-9.6200008392334
529.291,12.9100008010864
529.301,43.9900016784668
529.311,74.8300018310547
529.319,107.240005493164
529.329,128.480010986328
529.339,146.260009765625
529.349,144.580001831055
529.359,123.060005187988
529.369,88.8300018310547
529.379,48.3000030517578
529.389,13.7900009155273
529.399,-24.1800003051758
529.409,-75.8800048828125
529.419,-107.270004272461
529.429,-107.100006103516
529.439,-85.7800064086914
529.449,-70.0300064086914
529.459,-69.5800018310547
529.469,-71.3600006103516
529.479,-59.9500045776367
529.489,-22.7500019073486
529.499,19.6000003814697
529.509,54.8800010681152
529.518,86.1700057983398
529.528,120.080009460449
529.538,158.020004272461
529.548,189.940002441406
529.558,204.540008544922
529.568,202.750015258789
529.578,201.910003662109
529.588,208.490005493164
529.598,231.380004882812
529.608,258.540008544922
529.618,311.080017089844
529.628,364.840026855469
529.638,421.500030517578
529.648,467.280029296875
529.658,516.420043945312
529.668,560.980041503906
529.678,547.360046386719
529.688,442.890014648438
529.698,305.160003662109
529.708,113.92000579834
529.717,21.4500007629395
529.727,-84.4500045776367
529.737,-150.920013427734
529.747,-170.270004272461
529.757,-178.150009155273
529.767,-134.120010375977
529.777,-89.6300048828125
529.787,-43.8200035095215
529.797,-4.65000009536743
529.807,23.060001373291
529.817,30.310001373291
529.827,12.4900007247925
529.837,-37.5200004577637
529.847,-83.6800003051758
529.857,-112.980003356934
529.867,-164.290008544922
529.877,-215.700012207031
529.887,-233.760009765625
529.897,-231.84001159668
529.907,-194.950012207031
529.911,-10.4300003051758
529.921,25.2700004577637
529.931,42.0000038146973
529.941,50.7100028991699
529.951,55.3300018310547
529.961,66.5
529.971,67.0600051879883
529.981,45.810001373291
529.991,11.4800004959106
530.001,1.85000014305115
530.011,1.71000003814697
530.021,8.36000061035156
530.031,-5.63000011444092
530.041,-19.9500007629395
530.051,-6.82000017166138
530.061,23.7600002288818
530.069,35.1400032043457
530.079,31.0800018310547
530.089,13.7500009536743
530.099,-2.69000005722046
530.109,-11.4400005340576
530.119,-16.8700008392334
530.129,-51.620002746582
530.139,-107.520004272461
530.149,-132.190002441406
530.159,-135.800003051758
530.169,-118.960006713867
530.179,-107.240005493164
530.189,-102.790008544922
530.199,-86.4100036621094
530.209,-39.7200012207031
530.219,12.8800010681152
530.229,62.0500030517578
530.239,94.0800018310547
530.249,136.850006103516
530.259,179.410003662109
530.268,208.350006103516
530.278,208.000015258789
530.288,217.030014038086
530.298,227.880004882812
530.308,245.700012207031
530.318,248.320007324219
530.328,257.809997558594
530.338,265.02001953125
530.348,280.210021972656
530.358,302.890014648438
530.368,313.070007324219
530.378,275.200012207031
530.388,230.440017700195
530.398,116.410003662109
530.408,-10.5700006484985
530.418,-38.1500015258789
530.428,-87.7100067138672
530.438,-103.250007629395
530.448,-112.100006103516
530.458,-128.870010375977
530.467,-85.4300003051758
530.477,-13.9300003051758
530.487,21.4500007629395
530.497,36.8200035095215
530.507,33.7700004577637
530.517,23.1300010681152
530.527,16.8700008392334
530.537,-38.4300003051758
530.547,-126.730003356934
530.557,-233.59001159668
530.567,-273.980010986328
530.577,-275.900024414062
530.587,-270.090026855469
530.597,-269.809997558594
530.607,-239.400009155273
530.617,-178.250015258789
530.627,-99.6100082397461
530.637,-26.4200019836426
530.647,45.5300025939941
530.657,116.440002441406
530.661,166.210006713867
530.671,139.540008544922
530.681,109.270004272461
530.691,64.4300003051758
530.701,32.7900009155273
530.711,7.10000038146973
530.721,0.0700000002980232
530.731,-9.17000007629395
530.741,-24.6000003814697
530.751,-17.2900009155273
530.761,-16.8299999237061
530.771,-15.0500011444092
530.781,-2.48000001907349
530.791,9.97000026702881
530.801,13.8600006103516
530.811,32.2700004577637
530.819,32.5100021362305
530.829,32.2000007629395
530.839,34.9600028991699
530.849,45.7400016784668
530.859,56.8000030517578
530.869,70.8400039672852
530.879,67.7600021362305
530.889,66.0100021362305
530.899,53.8300018310547
530.909,44.310001373291
530.919,8.05000019073486
530.929,-12.1400003433228
530.939,-22.8200016021729
530.949,-33.5300025939941
530.959,-39.3400001525879
530.969,-27.8900012969971
530.979,-20.2600002288818
530.989,7.73000049591064
530.999,26.4900016784668
531.009,38.9900016784668
531.018,42.8000030517578
531.028,59.1100044250488
531.038,44.7600021362305
531.048,39.060001373291
531.058,34.8600006103516
531.068,23.5900020599365
531.078,-11.4800004959106
531.088,-23.6600017547607
531.098,-21.1700000762939
531.108,-12.4600009918213
531.118,-19.1100006103516
531.128,-16.5900001525879
531.138,-21.8700008392334
531.148,-24.5700016021729
531.158,-24.1100006103516
531.168,-22.1500015258789
531.178,-25.0900020599365
531.188,-19.4200000762939
531.198,-22.4000015258789
531.208,-31.5300006866455
531.215,-24.9500007629395
531.225,-7.21000051498413
531.235,-6.30000019073486
531.245,-7.49000024795532
531.255,1.71000003814697
531.265,15.8900003433228
531.275,16.4099998474121
531.285,11.7600002288818
531.295,15.6100006103516
531.305,-1.47000002861023
531.315,-17.5300006866455
531.325,-21.9400005340576
531.335,-7.35000038146973
531.345,-5.39000034332275
531.355,-12.3900003433228
531.365,-6.09000015258789
531.375,5.35000038146973
531.385,-4.13000011444092
531.395,-5.74000024795532
531.405,7.45000028610229
531.41,-7.28000020980835
531.42,-19.810001373291
531.43,-26.7000007629395
531.44,-24.9500007629395
531.45,-41.8600006103516
531.46,-50.4700012207031
531.47,-37.3800010681152
531.48,-26.6300010681152
531.49,-21.8400001525879
531.5,-12.5300006866455
531.51,9.13000011444092
531.52,18.4100017547607
531.53,23.3800010681152
531.54,31.1800022125244
531.55,24.3600006103516
531.56,10.460000038147
531.569,11.5500001907349
531.579,14.2100009918213
531.589,-3.3600001335144
531.599,-16.5200004577637
531.609,-16.1300010681152
531.619,-15.6400003433228
531.629,-23.1300010681152
531.639,-32.4400024414062
531.649,-23.6200008392334
531.659,-25.3400020599365
531.669,-23.8700008392334
531.679,-1.15000009536743
531.689,12.8100004196167
531.699,16.3800010681152
531.709,27.8600006103516
531.719,40.7700004577637
531.729,32.1599998474121
531.739,27.5400009155273
531.749,30.730001449585
531.759,16.2700004577637
531.768,2.97000002861023
531.778,8.71000003814697
531.788,3.3600001335144
531.798,-11.5100002288818
531.808,6.33000040054321
531.818,14.3500003814697
531.828,19.4600009918213
531.838,69.6800003051758
531.848,56.6300010681152
531.858,53.370002746582
531.868,16.8700008392334
531.878,-15.4000005722046
531.888,-21.0300006866455
531.898,-48.680004119873
531.908,-68.8800048828125
531.918,-78.9900054931641
531.928,-41.8900032043457
531.938,-31.5700016021729
531.948,-12.4900007247925
531.958,11.2300004959106
531.965,15.8500003814697
531.975,31.3600006103516
531.985,80.0800018310547
531.995,57.9900016784668
532.005,28.6300010681152
532.015,24.1100006103516
532.025,2.38000011444092
532.035,9.24000072479248
532.045,3.50000023841858
532.055,-33.560001373291
532.065,-66.0400009155273
532.075,-64.75
532.085,-94.2200012207031
532.095,-117.350006103516
532.105,-125.160003662109
532.115,-142.800003051758
532.125,-148.540008544922
532.135,-117.980003356934
532.145,-55.6500015258789
532.155,-7.63000059127808
532.16,92.8200073242188
532.17,30.6600017547607
532.18,-3.50000023841858
532.19,15.0100011825562
532.2,-9.73000049591064
532.21,-56.5900039672852
532.22,-35.9800033569336
532.23,31.3600006103516
532.24,38.9200019836426
532.25,40.2800025939941
532.26,17.4300003051758
532.27,-28.8000011444092
532.28,-20.9300003051758
532.29,23.2400016784668
532.3,41.8900032043457
532.31,30.5200023651123
532.319,71.2900009155273
532.329,102.860008239746
532.339,87.3600006103516
532.349,89.0700073242188
532.359,55.5800018310547
532.369,-8.85000038146973
532.379,-33.7700004577637
532.389,-64.2600021362305
532.399,-122.780006408691
532.409,-159.490005493164
532.419,-158.160003662109
532.429,-147.940002441406
532.439,-113.92000579834
532.449,-45.7400016784668
532.459,3.08000016212463
532.469,48.5400009155273
532.479,115.530006408691
532.489,136.780014038086
532.499,131.110000610352
532.509,150.040008544922
532.518,130.620010375977
532.528,81.7900009155273
532.538,41.9600028991699
532.548,-2.59000015258789
532.558,-53.4800033569336
532.568,-79.9700012207031
532.578,-95.4800033569336
532.588,-121.830009460449
532.598,-116.020004272461
532.608,-84.140007019043
532.618,-31.3200016021729
532.628,5.1100001335144
532.638,35.4900016784668
532.648,57.5400009155273
532.658,68.7700042724609
532.668,75.6700057983398
532.678,63.870002746582
532.688,44.1300010681152
532.698,55.7500038146973
532.708,60.7900047302246
532.715,53.2000007629395
532.725,56.8000030517578
532.735,41.8600006103516
532.745,24.1500015258789
532.755,25.5100021362305
532.765,9.45000076293945
532.775,-30.1700019836426
532.785,-62.7900047302246
532.795,-90.2300033569336
532.805,-119.560005187988
532.815,-128.380004882812
