Time,AccelerometerX
288.3,-0.76318359375
288.31,-0.93017578125
288.32,-0.94091796875
288.33,-0.79150390625
288.34,-0.52392578125
288.35,-0.2042236328125
288.36,0.08404541015625
288.37,0.2587890625
288.379,0.27197265625
288.389,0.1376953125
288.399,-0.07952880859375
288.409,-0.302978515625
288.419,-0.47412109375
288.429,-0.56884765625
288.439,-0.59228515625
288.449,-0.56005859375
288.459,-0.495849609375
288.469,-0.423583984375
288.479,-0.363037109375
288.489,-0.338623046875
288.499,-0.366455078125
288.509,-0.4345703125
288.519,-0.51416015625
288.529,-0.5771484375
288.539,-0.61376953125
288.549,-0.63818359375
288.559,-0.67333984375
288.569,-0.720703125
288.573,-0.4638671875
288.583,-0.350341796875
288.593,-0.2406005859375
288.603,-0.156982421875
288.613,-0.1268310546875
288.623,-0.1546630859375
288.633,-0.2113037109375
288.643,-0.257080078125
288.653,-0.28173828125
288.663,-0.304443359375
288.673,-0.34423828125
288.683,-0.40673828125
288.693,-0.483154296875
288.703,-0.56298828125
288.713,-0.65576171875
288.723,-0.78076171875
288.732,-0.9521484375
288.742,-1.15625
288.752,-1.3408203125
288.762,-1.43359375
288.772,-1.3955078125
288.782,-1.23046875
288.792,-0.97607421875
288.802,-0.681640625
288.812,-0.408935546875
288.822,-0.216796875
288.832,-0.1246337890625
288.842,-0.11529541015625
288.852,-0.157958984375
288.862,-0.215087890625
288.872,-0.269287109375
288.882,-0.331298828125
288.892,-0.410888671875
288.902,-0.499755859375
288.912,-0.578125
288.922,-0.62890625
288.93,-0.64013671875
288.94,-0.61083984375
288.95,-0.5654296875
288.96,-0.54150390625
288.97,-0.5634765625
288.98,-0.6220703125
288.99,-0.66552734375
289,-0.64111328125
289.01,-0.54150390625
289.02,-0.40478515625
289.03,-0.265869140625
289.04,-0.1500244140625
289.05,-0.08660888671875
289.06,-0.0828857421875
289.07,-0.11376953125
289.08,-0.165283203125
289.09,-0.244140625
289.1,-0.347412109375
289.11,-0.44775390625
289.12,-0.51318359375
289.129,-0.5380859375
289.139,-0.54052734375
289.149,-0.53125
289.159,-0.505859375
289.169,-0.458984375
289.179,-0.407958984375
289.189,-0.38232421875
289.199,-0.397705078125
289.209,-0.444580078125
289.219,-0.49267578125
289.229,-0.51025390625
289.239,-0.4970703125
289.249,-0.472412109375
289.259,-0.447021484375
289.269,-0.406982421875
289.279,-0.33203125
289.289,-0.2283935546875
289.299,-0.1387939453125
289.309,-0.113525390625
289.319,-0.1585693359375
289.323,-0.58349609375
289.333,-0.62841796875
289.343,-0.58203125
289.353,-0.459228515625
289.363,-0.306640625
289.373,-0.164794921875
289.383,-0.04296875
289.393,0.07763671875
289.403,0.2025146484375
289.413,0.291015625
289.423,0.28662109375
289.433,0.1651611328125
289.443,-0.0390625
289.453,-0.2496337890625
289.463,-0.403076171875
289.473,-0.4873046875
289.482,-0.52294921875
289.492,-0.52587890625
289.502,-0.485595703125
289.512,-0.387939453125
289.522,-0.252197265625
289.532,-0.1259765625
289.542,-0.053253173828125
289.552,-0.042449951171875
289.562,-0.06268310546875
289.572,-0.0794677734375
289.582,-0.09112548828125
289.592,-0.130615234375
289.602,-0.21826171875
289.612,-0.3193359375
289.622,-0.378662109375
289.632,-0.384521484375
289.642,-0.379638671875
289.652,-0.413818359375
289.662,-0.492919921875
289.672,-0.57373046875
289.68,-0.60888671875
289.69,-0.59326171875
289.7,-0.56396484375
289.71,-0.55712890625
289.72,-0.56201171875
289.73,-0.53955078125
289.74,-0.462158203125
289.75,-0.337158203125
289.76,-0.2066650390625
289.77,-0.1209716796875
289.78,-0.10528564453125
289.79,-0.154541015625
289.8,-0.25
289.81,-0.38037109375
289.82,-0.5390625
289.83,-0.6904296875
289.84,-0.7685546875
289.85,-0.72705078125
289.86,-0.59375
289.87,-0.454345703125
289.879,-0.375732421875
289.889,-0.355712890625
289.899,-0.35791015625
289.909,-0.368896484375
289.919,-0.4091796875
289.929,-0.5009765625
289.939,-0.6298828125
289.949,-0.74560546875
289.959,-0.79345703125
289.969,-0.74755859375
289.979,-0.6513671875
289.989,-0.583984375
289.999,-0.58544921875
290.009,-0.63037109375
290.019,-0.66455078125
290.029,-0.6640625
290.039,-0.6533203125
290.049,-0.6650390625
290.059,-0.6962890625
290.069,-0.71484375
290.073,-1.056640625
290.083,-1.0830078125
290.093,-0.9765625
290.103,-0.8095703125
290.113,-0.6689453125
290.123,-0.5830078125
290.133,-0.525390625
290.143,-0.462158203125
290.153,-0.3955078125
290.163,-0.355224609375
290.173,-0.356201171875
290.183,-0.3798828125
290.193,-0.39111328125
290.203,-0.367919921875
290.213,-0.324462890625
290.223,-0.300048828125
290.232,-0.322021484375
290.242,-0.377685546875
290.252,-0.424560546875
290.262,-0.438720703125
290.272,-0.4384765625
290.282,-0.4619140625
290.292,-0.51708984375
290.302,-0.56298828125
290.312,-0.55859375
290.322,-0.52001953125
290.332,-0.49560546875
290.342,-0.50390625
290.352,-0.51708984375
290.362,-0.4912109375
290.372,-0.407470703125
290.382,-0.291015625
290.392,-0.1888427734375
290.402,-0.1307373046875
290.412,-0.11822509765625
290.422,-0.1416015625
290.43,-0.1973876953125
290.44,-0.2958984375
290.45,-0.44970703125
290.46,-0.63818359375
290.47,-0.7998046875
290.48,-0.8779296875
290.49,-0.86328125
290.5,-0.79345703125
290.51,-0.70361328125
290.52,-0.59619140625
290.53,-0.4638671875
290.54,-0.33203125
290.55,-0.260498046875
290.56,-0.296142578125
290.57,-0.4287109375
290.58,-0.58984375
290.59,-0.7060546875
290.6,-0.744140625
290.61,-0.72412109375
290.62,-0.70703125
290.629,-0.72705078125
290.639,-0.75439453125
290.649,-0.7333984375
290.659,-0.64208984375
290.669,-0.5087890625
290.679,-0.391845703125
290.689,-0.3232421875
290.699,-0.286865234375
290.709,-0.26220703125
290.719,-0.25439453125
290.729,-0.28271484375
290.739,-0.3466796875
290.749,-0.41748046875
290.759,-0.45947265625
290.769,-0.45458984375
290.779,-0.429931640625
290.789,-0.451904296875
290.799,-0.556640625
290.809,-0.71337890625
290.819,-0.86181640625
290.824,-0.9765625
290.834,-0.84130859375
290.844,-0.64794921875
290.854,-0.47607421875
290.864,-0.40185546875
290.874,-0.43994140625
290.884,-0.53759765625
290.894,-0.60986328125
290.904,-0.60009765625
290.914,-0.52685546875
290.924,-0.458251953125
290.934,-0.4541015625
290.944,-0.51708984375
290.954,-0.5966796875
290.964,-0.64892578125
290.974,-0.67724609375
290.983,-0.7080078125
290.993,-0.7529296875
291.003,-0.78857421875
291.013,-0.77783203125
291.023,-0.7109375
291.033,-0.6259765625
291.043,-0.5859375
291.053,-0.62353515625
291.063,-0.701171875
291.073,-0.7412109375
291.083,-0.67822265625
291.093,-0.49169921875
291.103,-0.223388671875
291.113,0.039520263671875
291.123,0.21875
291.133,0.296630859375
291.143,0.304443359375
291.153,0.2587890625
291.163,0.13427734375
291.173,-0.08697509765625
291.18,-0.364013671875
291.19,-0.61962890625
291.2,-0.779296875
291.21,-0.7880859375
291.22,-0.63916015625
291.23,-0.38916015625
291.24,-0.1263427734375
291.25,0.07965087890625
291.26,0.1917724609375
291.27,0.20068359375
291.28,0.126953125
291.29,0.00392913818359375
291.3,-0.141357421875
291.31,-0.27734375
291.32,-0.37451171875
291.33,-0.437255859375
291.34,-0.50146484375
291.35,-0.603515625
291.36,-0.76611328125
291.37,-0.9853515625
291.379,-1.212890625
291.389,-1.3681640625
291.399,-1.396484375
291.409,-1.30078125
291.419,-1.1279296875
291.429,-0.931640625
291.439,-0.75927734375
291.449,-0.6328125
291.459,-0.56591796875
291.469,-0.57080078125
291.479,-0.630859375
291.489,-0.69287109375
291.499,-0.7001953125
291.509,-0.6318359375
291.519,-0.52880859375
291.529,-0.471923828125
291.539,-0.5224609375
291.549,-0.67724609375
291.559,-0.8623046875
291.569,-0.97216796875
291.573,-0.265869140625
291.583,-0.31591796875
291.593,-0.407958984375
291.603,-0.438720703125
291.613,-0.35009765625
291.623,-0.177001953125
291.633,-0.0157318115234375
291.643,0.039276123046875
291.653,-0.042083740234375
291.663,-0.2056884765625
291.673,-0.36376953125
291.683,-0.458984375
291.693,-0.48974609375
291.703,-0.501953125
291.713,-0.55078125
291.723,-0.65087890625
291.732,-0.76220703125
291.742,-0.81494140625
291.752,-0.76318359375
291.762,-0.61962890625
291.772,-0.4443359375
291.782,-0.306640625
291.792,-0.26123046875
291.802,-0.33251953125
291.812,-0.5009765625
291.822,-0.69677734375
291.832,-0.828125
291.842,-0.83447265625
291.852,-0.71728515625
291.862,-0.53125
291.872,-0.36865234375
291.882,-0.3173828125
291.892,-0.40625
291.902,-0.576171875
291.912,-0.7021484375
291.922,-0.68115234375
291.93,-0.5
291.94,-0.222412109375
291.95,0.043792724609375
291.96,0.1947021484375
291.97,0.1953125
291.98,0.08184814453125
291.99,-0.0843505859375
292,-0.2587890625
292.01,-0.44189453125
292.02,-0.6494140625
292.03,-0.8681640625
292.04,-1.056640625
292.05,-1.15234375
292.06,-1.0986328125
292.07,-0.900390625
292.08,-0.625
292.09,-0.380859375
292.1,-0.264892578125
292.11,-0.3232421875
292.12,-0.53466796875
292.129,-0.81787109375
292.139,-1.0556640625
292.149,-1.1435546875
292.159,-1.0400390625
292.169,-0.7880859375
292.179,-0.50537109375
292.189,-0.310546875
292.199,-0.2666015625
292.209,-0.355712890625
292.219,-0.486572265625
292.229,-0.552734375
292.239,-0.4990234375
292.249,-0.343994140625
292.259,-0.1746826171875
292.269,-0.1104736328125
292.279,-0.2271728515625
292.289,-0.50830078125
292.299,-0.845703125
292.309,-1.0771484375
292.319,-1.078125
292.323,0.2381591796875
292.333,0.11065673828125
292.343,-0.1051025390625
292.353,-0.30810546875
292.363,-0.4287109375
292.373,-0.463623046875
292.383,-0.474365234375
292.393,-0.53857421875
292.403,-0.68212890625
292.413,-0.86083984375
292.423,-0.984375
292.433,-0.98388671875
292.443,-0.875
292.453,-0.7412109375
292.463,-0.658203125
292.473,-0.6337890625
292.481,-0.60595703125
292.491,-0.509765625
292.501,-0.33056640625
292.511,-0.1009521484375
292.521,0.113525390625
292.531,0.2261962890625
292.541,0.1683349609375
292.551,-0.0634765625
292.561,-0.3779296875
292.571,-0.62646484375
292.581,-0.7109375
292.591,-0.638671875
292.601,-0.492919921875
292.611,-0.35693359375
292.621,-0.26025390625
292.631,-0.177734375
292.641,-0.07513427734375
292.651,0.053375244140625
292.661,0.1597900390625
292.671,0.1669921875
292.68,0.04107666015625
292.69,-0.177978515625
292.7,-0.409912109375
292.71,-0.59814453125
292.72,-0.74658203125
292.73,-0.8701171875
292.74,-0.93310546875
292.75,-0.8740234375
292.76,-0.6640625
292.77,-0.358154296875
292.78,-0.07958984375
292.79,0.054107666015625
292.8,-0.0089263916015625
292.81,-0.232666015625
292.82,-0.521484375
292.83,-0.79150390625
292.84,-0.9970703125
292.85,-1.1103515625
292.86,-1.10546875
292.87,-0.974609375
292.879,-0.751953125
292.889,-0.51123046875
292.899,-0.318359375
292.909,-0.2041015625
292.919,-0.1695556640625
292.929,-0.20068359375
292.939,-0.28076171875
292.949,-0.3857421875
292.959,-0.483154296875
292.969,-0.54931640625
292.979,-0.5703125
292.989,-0.5390625
292.999,-0.4638671875
293.009,-0.364990234375
293.019,-0.276611328125
293.029,-0.2222900390625
293.039,-0.1878662109375
293.049,-0.153564453125
293.059,-0.1285400390625
293.069,-0.1279296875
293.073,-0.265869140625
293.083,-0.2481689453125
293.093,-0.2257080078125
293.103,-0.2109375
293.113,-0.2239990234375
293.123,-0.2822265625
293.133,-0.370361328125
293.143,-0.460693359375
293.153,-0.54150390625
293.163,-0.61328125
293.173,-0.6748046875
293.183,-0.7060546875
293.193,-0.67626953125
293.203,-0.58740234375
293.213,-0.474365234375
293.223,-0.37451171875
293.231,-0.320068359375
293.241,-0.330810546875
293.251,-0.402099609375
293.261,-0.51611328125
293.271,-0.65087890625
293.281,-0.7724609375
293.291,-0.84375
293.301,-0.83447265625
293.311,-0.75048828125
293.321,-0.6396484375
293.331,-0.54296875
293.341,-0.4736328125
293.351,-0.4375
293.361,-0.435546875
293.371,-0.470947265625
293.381,-0.5517578125
293.391,-0.66748046875
293.401,-0.7734375
293.411,-0.7978515625
293.421,-0.6923828125
293.43,-0.490234375
293.44,-0.2724609375
293.45,-0.10650634765625
293.46,-0.0113067626953125
293.47,0.0261993408203125
293.48,0.00632095336914062
293.49,-0.0797119140625
293.5,-0.218994140625
293.51,-0.375732421875
293.52,-0.49755859375
293.53,-0.55517578125
293.54,-0.5908203125
293.55,-0.66943359375
293.56,-0.7861328125
293.57,-0.8671875
293.58,-0.861328125
293.59,-0.77880859375
293.6,-0.6650390625
293.61,-0.57275390625
293.62,-0.52294921875
293.629,-0.494140625
293.639,-0.466552734375
293.649,-0.43310546875
293.659,-0.397705078125
293.669,-0.37841796875
293.679,-0.38427734375
293.689,-0.409912109375
293.699,-0.4443359375
293.709,-0.472412109375
293.719,-0.47900390625
293.729,-0.4443359375
293.739,-0.34130859375
293.749,-0.1767578125
293.759,-0.0129318237304688
293.769,0.06768798828125
293.779,0.02081298828125
293.789,-0.1278076171875
293.799,-0.303466796875
293.809,-0.440673828125
293.819,-0.52587890625
293.824,-0.84033203125
293.834,-0.87158203125
293.844,-0.92236328125
293.854,-0.99462890625
293.864,-1.0390625
293.874,-1.0068359375
293.884,-0.90771484375
293.894,-0.79296875
293.904,-0.69873046875
293.914,-0.62939453125
293.924,-0.58544921875
293.934,-0.56689453125
293.944,-0.56787109375
293.954,-0.58154296875
293.964,-0.5927734375
293.974,-0.57666015625
293.981,-0.51953125
293.991,-0.436767578125
294.001,-0.3583984375
294.011,-0.31201171875
294.021,-0.308349609375
294.031,-0.327392578125
294.041,-0.3466796875
294.051,-0.38134765625
294.061,-0.459228515625
294.071,-0.57861328125
294.081,-0.6904296875
294.091,-0.72509765625
294.101,-0.65869140625
294.111,-0.53369140625
294.121,-0.4033203125
294.131,-0.295654296875
294.141,-0.225830078125
294.151,-0.2022705078125
294.161,-0.22119140625
294.171,-0.272216796875
294.18,-0.341552734375
294.19,-0.396484375
294.2,-0.394287109375
294.21,-0.330078125
294.22,-0.26513671875
294.23,-0.275634765625
294.24,-0.37890625
294.25,-0.52490234375
294.26,-0.66015625
294.27,-0.76904296875
294.28,-0.8515625
294.29,-0.892578125
294.3,-0.86083984375
294.31,-0.7392578125
294.32,-0.564453125
294.33,-0.417724609375
294.34,-0.36328125
294.35,-0.3974609375
294.36,-0.474365234375
294.37,-0.56201171875
294.379,-0.66259765625
294.389,-0.77880859375
294.399,-0.88037109375
294.409,-0.900390625
294.419,-0.7939453125
294.429,-0.599609375
294.439,-0.43115234375
294.449,-0.3896484375
294.459,-0.480712890625
294.469,-0.62548828125
294.479,-0.7490234375
294.489,-0.83154296875
294.499,-0.88818359375
294.509,-0.919921875
294.519,-0.89306640625
294.529,-0.77294921875
294.539,-0.57958984375
294.549,-0.398681640625
294.559,-0.32861328125
294.569,-0.405029296875
294.573,-1.025390625
294.583,-1.0966796875
294.593,-1.09765625
294.603,-0.99560546875
294.613,-0.82373046875
294.623,-0.6796875
294.633,-0.64794921875
294.643,-0.73583984375
294.653,-0.8642578125
294.663,-0.91552734375
294.673,-0.8095703125
294.683,-0.5595703125
294.693,-0.2607421875
294.703,-0.037078857421875
294.713,0.0168304443359375
294.723,-0.12548828125
294.731,-0.42431640625
294.741,-0.80126953125
294.751,-1.173828125
294.761,-1.4775390625
294.771,-1.6767578125
294.781,-1.76171875
294.791,-1.7431640625
294.801,-1.6474609375
294.811,-1.5029296875
294.821,-1.3349609375
294.831,-1.1767578125
294.841,-1.060546875
294.851,-1.00390625
294.861,-0.9912109375
294.871,-0.994140625
294.881,-0.9892578125
294.891,-0.97314453125
294.901,-0.96435546875
294.911,-0.9736328125
294.921,-0.99267578125
294.93,-1.013671875
294.94,-1.037109375
294.95,-1.0546875
294.96,-1.0556640625
294.97,-1.0517578125
294.98,-1.0595703125
294.99,-1.0830078125
295,-1.1083984375
295.01,-1.12890625
295.02,-1.1455078125
295.03,-1.1552734375
295.04,-1.1494140625
295.05,-1.1201171875
295.06,-1.0712890625
295.07,-1.009765625
295.08,-0.9521484375
295.09,-0.91455078125
295.1,-0.90234375
295.11,-0.916015625
295.12,-0.94873046875
295.129,-0.9853515625
295.139,-1.0107421875
295.149,-1.021484375
295.159,-1.0185546875
295.169,-1.0087890625
295.179,-0.9931640625
295.189,-0.978515625
295.199,-0.970703125
295.209,-0.9658203125
295.219,-0.9560546875
295.229,-0.9423828125
295.239,-0.92919921875
295.249,-0.92578125
295.259,-0.93798828125
295.269,-0.9638671875
295.279,-0.99169921875
295.289,-1.0078125
295.299,-1.0087890625
295.309,-0.99658203125
295.319,-0.97119140625
295.324,-1.046875
295.334,-1.123046875
295.344,-1.1826171875
295.354,-1.2041015625
295.364,-1.1748046875
295.374,-1.1083984375
295.384,-1.033203125
295.394,-0.97412109375
295.404,-0.9375
295.414,-0.9189453125
295.424,-0.90869140625
295.434,-0.89794921875
295.444,-0.888671875
295.454,-0.880859375
295.464,-0.86962890625
295.474,-0.85009765625
295.481,-0.818359375
295.491,-0.77734375
295.501,-0.736328125
295.511,-0.70947265625
295.521,-0.70703125
295.531,-0.73046875
295.541,-0.77294921875
295.551,-0.8125
295.561,-0.82421875
295.571,-0.80322265625
295.581,-0.765625
295.591,-0.72998046875
295.601,-0.71240234375
295.611,-0.71875
295.621,-0.74755859375
295.631,-0.7958984375
295.641,-0.85302734375
295.651,-0.8935546875
295.661,-0.8837890625
295.671,-0.80419921875
295.68,-0.666015625
295.69,-0.499755859375
295.7,-0.3408203125
295.71,-0.220458984375
295.72,-0.156982421875
295.73,-0.15869140625
295.74,-0.22216796875
295.75,-0.332763671875
295.76,-0.478759765625
295.77,-0.65283203125
295.78,-0.83740234375
295.79,-1.0029296875
295.8,-1.1171875
295.81,-1.1611328125
295.82,-1.138671875
295.83,-1.064453125
295.84,-0.9541015625
295.85,-0.83154296875
295.86,-0.72802734375
295.87,-0.66259765625
295.879,-0.6416015625
295.889,-0.66455078125
295.899,-0.72119140625
295.909,-0.79541015625
295.919,-0.86474609375
295.929,-0.9072265625
295.939,-0.9091796875
295.949,-0.869140625
295.959,-0.80224609375
295.969,-0.73388671875
295.979,-0.68603515625
295.989,-0.671875
295.999,-0.6962890625
296.009,-0.7568359375
296.019,-0.841796875
296.029,-0.92919921875
296.039,-0.9970703125
296.049,-1.033203125
296.059,-1.03515625
296.069,-1.009765625
296.073,-0.87890625
296.083,-0.9013671875
296.093,-0.9287109375
296.103,-0.943359375
296.113,-0.93701171875
296.123,-0.9150390625
296.133,-0.888671875
296.143,-0.86767578125
296.153,-0.85498046875
296.163,-0.8447265625
296.173,-0.82763671875
296.183,-0.79638671875
296.193,-0.74951171875
296.203,-0.6923828125
296.213,-0.63818359375
296.223,-0.59912109375
296.231,-0.58154296875
296.241,-0.5908203125
296.251,-0.626953125
296.261,-0.68359375
296.271,-0.74365234375
296.281,-0.7890625
296.291,-0.80126953125
296.301,-0.771484375
296.311,-0.7001953125
296.321,-0.5830078125
296.331,-0.425537109375
296.341,-0.26171875
296.351,-0.135498046875
296.361,-0.074951171875
296.371,-0.09124755859375
296.381,-0.1875
296.391,-0.346923828125
296.401,-0.5322265625
296.411,-0.7099609375
296.421,-0.85791015625
296.43,-0.955078125
296.44,-0.98388671875
296.45,-0.94873046875
296.46,-0.87646484375
296.47,-0.80224609375
296.48,-0.75537109375
296.49,-0.75244140625
296.5,-0.79736328125
296.51,-0.88623046875
296.52,-1.005859375
296.53,-1.1337890625
296.54,-1.248046875
296.55,-1.3203125
296.56,-1.3330078125
296.57,-1.2802734375
296.58,-1.1728515625
296.59,-1.037109375
296.6,-0.8994140625
296.61,-0.78369140625
296.62,-0.70849609375
296.629,-0.68505859375
296.639,-0.7119140625
296.649,-0.77783203125
296.659,-0.865234375
296.669,-0.9560546875
296.679,-1.029296875
296.689,-1.0673828125
296.699,-1.060546875
296.709,-1.013671875
296.719,-0.939453125
296.729,-0.85302734375
296.739,-0.7666015625
296.749,-0.68701171875
296.759,-0.6240234375
296.769,-0.59033203125
296.779,-0.5869140625
296.789,-0.61474609375
296.799,-0.67822265625
296.809,-0.7705078125
296.819,-0.86376953125
296.823,-0.76025390625
296.833,-0.67578125
296.843,-0.61474609375
296.853,-0.5947265625
296.863,-0.61767578125
296.873,-0.66845703125
296.883,-0.73291015625
296.893,-0.80517578125
296.903,-0.873046875
296.913,-0.91796875
296.923,-0.92236328125
296.933,-0.88037109375
296.943,-0.7998046875
296.953,-0.70263671875
296.963,-0.6162109375
296.973,-0.56005859375
296.981,-0.53955078125
296.991,-0.556640625
297.001,-0.6123046875
297.011,-0.69677734375
297.021,-0.787109375
297.031,-0.86083984375
297.041,-0.8916015625
297.051,-0.859375
297.061,-0.7666015625
297.071,-0.63720703125
297.081,-0.50341796875
297.091,-0.38427734375
297.101,-0.283447265625
297.111,-0.205078125
297.121,-0.16064453125
297.131,-0.15478515625
297.141,-0.1715087890625
297.151,-0.1796875
297.161,-0.1546630859375
297.171,-0.09454345703125
297.18,-0.00982666015625
297.19,0.095703125
297.2,0.216552734375
297.21,0.33154296875
297.22,0.41845703125
297.23,0.463134765625
297.24,0.455322265625
297.25,0.396484375
297.26,0.311767578125
297.27,0.2330322265625
297.28,0.1705322265625
297.29,0.11480712890625
297.3,0.05859375
297.31,-0.00181484222412109
297.32,-0.0760498046875
297.33,-0.1611328125
297.34,-0.232666015625
297.35,-0.270263671875
297.36,-0.2734375
297.37,-0.249755859375
297.374,-0.0233154296875
297.384,0.0060272216796875
297.394,0.0220184326171875
297.404,0.0272674560546875
297.414,0.0227813720703125
297.424,0.00416183471679688
297.434,-0.0269622802734375
297.444,-0.0643310546875
297.454,-0.1041259765625
297.464,-0.14697265625
297.474,-0.2021484375
297.484,-0.2802734375
297.494,-0.374267578125
297.504,-0.454345703125
297.514,-0.4892578125
297.524,-0.4697265625
297.532,-0.399658203125
297.542,-0.291748046875
297.552,-0.1666259765625
297.562,-0.046173095703125
297.572,0.05389404296875
297.582,0.12109375
297.592,0.1405029296875
297.602,0.1036376953125
297.612,0.0201568603515625
297.622,-0.0908203125
297.632,-0.2066650390625
297.642,-0.296875
297.652,-0.337158203125
297.662,-0.32373046875
297.672,-0.260009765625
297.682,-0.15234375
297.692,-0.0231781005859375
297.702,0.09295654296875
297.712,0.1708984375
297.722,0.1971435546875
297.731,0.1646728515625
297.741,0.07855224609375
297.751,-0.042724609375
297.761,-0.1734619140625
297.771,-0.28466796875
297.781,-0.352294921875
297.791,-0.365966796875
297.801,-0.328857421875
297.811,-0.250244140625
297.821,-0.1424560546875
297.831,-0.0184326171875
297.841,0.10400390625
297.851,0.2001953125
297.861,0.250244140625
297.871,0.2471923828125
297.881,0.197265625
297.891,0.11663818359375
297.901,0.0220947265625
297.911,-0.0733642578125
297.921,-0.1556396484375
297.93,-0.2119140625
297.94,-0.2344970703125
297.95,-0.21826171875
297.96,-0.16162109375
297.97,-0.0694580078125
297.98,0.042724609375
297.99,0.1485595703125
298,0.2198486328125
298.01,0.238525390625
298.02,0.2000732421875
298.03,0.11163330078125
298.04,-0.0079498291015625
298.05,-0.1328125
298.06,-0.236328125
298.07,-0.29638671875
298.08,-0.306640625
298.09,-0.27685546875
298.1,-0.222900390625
298.11,-0.160888671875
298.12,-0.106689453125
298.125,-0.055816650390625
298.135,-0.062103271484375
298.145,-0.047760009765625
298.155,-0.0134658813476562
298.165,0.040740966796875
298.175,0.113037109375
298.185,0.1905517578125
298.195,0.251220703125
298.205,0.2783203125
298.215,0.265869140625
298.225,0.2142333984375
298.235,0.1343994140625
298.245,0.0450439453125
298.255,-0.03399658203125
298.265,-0.08782958984375
298.275,-0.1129150390625
298.283,-0.1148681640625
298.293,-0.09466552734375
298.303,-0.049072265625
298.313,0.01177978515625
298.323,0.06292724609375
298.333,0.08209228515625
298.343,0.05584716796875
298.353,-0.02081298828125
298.363,-0.13427734375
298.373,-0.251953125
298.383,-0.34521484375
298.393,-0.40576171875
298.403,-0.43310546875
298.413,-0.420654296875
298.423,-0.37109375
298.433,-0.306396484375
298.443,-0.248046875
298.453,-0.20751953125
298.463,-0.1995849609375
298.473,-0.2384033203125
298.481,-0.326904296875
298.491,-0.45849609375
298.501,-0.61083984375
298.511,-0.74853515625
298.521,-0.8486328125
298.531,-0.8994140625
298.541,-0.8916015625
298.551,-0.82568359375
298.561,-0.72998046875
298.571,-0.6630859375
298.581,-0.6689453125
298.591,-0.736328125
298.601,-0.8310546875
298.611,-0.93603515625
298.621,-1.0458984375
298.631,-1.146484375
298.641,-1.208984375
298.651,-1.205078125
298.661,-1.1259765625
298.671,-1.001953125
298.68,-0.888671875
298.69,-0.82666015625
298.7,-0.82861328125
298.71,-0.86865234375
298.72,-0.900390625
298.73,-0.8896484375
298.74,-0.82958984375
298.75,-0.72314453125
298.76,-0.58642578125
298.77,-0.45703125
298.78,-0.380859375
298.79,-0.378662109375
298.8,-0.429931640625
298.81,-0.489013671875
298.82,-0.52099609375
298.83,-0.5341796875
298.84,-0.58349609375
298.85,-0.7158203125
298.86,-0.90576171875
298.87,-1.076171875
298.875,-0.81591796875
298.885,-0.560546875
298.895,-0.2626953125
298.905,0.0408935546875
298.915,0.304443359375
298.925,0.48291015625
298.935,0.55810546875
298.945,0.5439453125
298.955,0.463623046875
298.965,0.341796875
298.975,0.207763671875
298.985,0.0838623046875
298.995,-0.023834228515625
299.005,-0.1114501953125
299.015,-0.169677734375
299.025,-0.19921875
299.032,-0.217041015625
299.042,-0.23876953125
299.052,-0.26220703125
299.062,-0.2744140625
299.072,-0.27099609375
299.082,-0.250732421875
299.092,-0.1759033203125
299.102,0.0062713623046875
299.112,0.267333984375
299.122,0.491943359375
299.132,0.60302734375
299.142,0.6259765625
299.152,0.59375
299.162,0.482666015625
299.172,0.282470703125
299.182,0.0546875
299.192,-0.11761474609375
299.202,-0.1778564453125
299.212,-0.10736083984375
299.222,0.06561279296875
299.231,0.275146484375
299.241,0.450927734375
299.251,0.54833984375
299.261,0.5673828125
299.271,0.53369140625
299.281,0.460693359375
299.291,0.344970703125
299.301,0.1785888671875
299.311,-0.0452880859375
299.321,-0.310302734375
299.331,-0.5654296875
299.341,-0.748046875
299.351,-0.81494140625
299.361,-0.74755859375
299.371,-0.5517578125
299.381,-0.26123046875
299.391,0.0655517578125
299.401,0.356201171875
299.411,0.546875
299.421,0.60205078125
299.43,0.52392578125
299.44,0.34814453125
299.45,0.132080078125
299.46,-0.0699462890625
299.47,-0.2193603515625
299.48,-0.294677734375
299.49,-0.29150390625
299.5,-0.21533203125
299.51,-0.08526611328125
299.52,0.0611572265625
299.53,0.1751708984375
299.54,0.21826171875
299.55,0.177001953125
299.56,0.0635986328125
299.57,-0.08990478515625
299.58,-0.238525390625
299.59,-0.33740234375
299.6,-0.356689453125
299.61,-0.291015625
299.62,-0.1585693359375
299.625,0.2978515625
299.635,0.1873779296875
299.645,0.0333251953125
299.655,-0.128173828125
299.665,-0.26171875
299.675,-0.33642578125
299.685,-0.339599609375
299.695,-0.2802734375
299.705,-0.1776123046875
299.715,-0.053436279296875
299.725,0.06597900390625
299.735,0.153564453125
299.745,0.1922607421875
299.755,0.1771240234375
299.765,0.116455078125
299.775,0.030914306640625
299.782,-0.055084228515625
299.792,-0.1224365234375
299.802,-0.1607666015625
299.812,-0.168212890625
299.822,-0.147216796875
299.832,-0.10479736328125
299.842,-0.05499267578125
299.852,-0.0143966674804688
299.862,0.00543975830078125
299.872,-0.000460624694824219
299.882,-0.0311431884765625
299.892,-0.078125
299.902,-0.1253662109375
299.912,-0.155029296875
299.922,-0.156494140625
299.932,-0.1287841796875
299.942,-0.0760498046875
299.952,-0.0043792724609375
299.962,0.0738525390625
299.972,0.140380859375
299.981,0.1788330078125
299.991,0.1839599609375
300.001,0.1627197265625
300.011,0.1263427734375
300.021,0.08538818359375
300.031,0.05047607421875
300.041,0.029327392578125
300.051,0.0239410400390625
300.061,0.031707763671875
300.071,0.0462646484375
300.081,0.0606689453125
300.091,0.07012939453125
300.101,0.072021484375
300.111,0.0662841796875
300.121,0.05316162109375
300.131,0.0362548828125
300.141,0.0264739990234375
300.151,0.029144287109375
300.161,0.034759521484375
300.171,0.03192138671875
300.18,0.0195159912109375
300.19,0.000452518463134766
300.2,-0.026611328125
300.21,-0.061553955078125
300.22,-0.099853515625
300.23,-0.13525390625
300.24,-0.1572265625
300.25,-0.15576171875
300.26,-0.1331787109375
300.27,-0.0982666015625
300.28,-0.058624267578125
300.29,-0.0221405029296875
300.3,0.00367546081542969
300.31,0.01751708984375
300.32,0.023590087890625
300.33,0.023895263671875
300.34,0.0149612426757812
300.35,-0.00386238098144531
300.36,-0.0236663818359375
300.37,-0.035125732421875
300.375,-0.040435791015625
300.385,-0.048431396484375
300.395,-0.05645751953125
300.405,-0.06591796875
300.415,-0.07012939453125
300.425,-0.05841064453125
300.435,-0.03155517578125
300.445,0.000566482543945312
300.455,0.028656005859375
300.465,0.0430908203125
300.475,0.037017822265625
300.485,0.0136947631835938
300.495,-0.0198974609375
300.505,-0.05810546875
300.515,-0.08892822265625
300.525,-0.100341796875
300.532,-0.0977783203125
300.542,-0.0958251953125
300.552,-0.09564208984375
300.562,-0.09228515625
300.572,-0.09197998046875
300.582,-0.1015625
300.592,-0.1136474609375
300.602,-0.1175537109375
300.612,-0.11669921875
300.622,-0.120361328125
300.632,-0.126708984375
300.642,-0.1278076171875
300.652,-0.1234130859375
300.662,-0.1209716796875
300.672,-0.12286376953125
300.682,-0.12274169921875
300.692,-0.117431640625
300.702,-0.11688232421875
300.712,-0.1297607421875
300.722,-0.14697265625
300.731,-0.1513671875
300.741,-0.1358642578125
300.751,-0.10137939453125
300.761,-0.053619384765625
300.771,-0.00520706176757812
300.781,0.02423095703125
300.791,0.017791748046875
300.801,-0.029632568359375
300.811,-0.1094970703125
300.821,-0.201416015625
300.831,-0.281982421875
300.841,-0.335205078125
300.851,-0.349365234375
300.861,-0.317626953125
300.871,-0.24560546875
300.881,-0.1514892578125
300.891,-0.060821533203125
300.901,-0.00554656982421875
300.911,-0.013916015625
300.921,-0.0892333984375
300.93,-0.207763671875
300.94,-0.340087890625
300.95,-0.466064453125
300.96,-0.56982421875
300.97,-0.63720703125
300.98,-0.66357421875
300.99,-0.666015625
301,-0.673828125
301.01,-0.7099609375
301.02,-0.7734375
301.03,-0.84619140625
301.04,-0.9150390625
301.05,-0.97265625
301.06,-1.015625
301.07,-1.0390625
301.08,-1.041015625
301.09,-1.021484375
301.1,-0.98779296875
301.11,-0.9423828125
301.12,-0.8955078125
301.124,-1.078125
301.134,-1.208984375
301.144,-1.333984375
301.154,-1.4189453125
301.164,-1.4287109375
301.174,-1.345703125
301.184,-1.185546875
301.194,-0.99267578125
301.204,-0.822265625
301.214,-0.7158203125
301.224,-0.681640625
301.234,-0.68408203125
301.244,-0.67626953125
301.254,-0.63232421875
301.264,-0.53759765625
301.274,-0.38916015625
301.283,-0.2115478515625
301.293,-0.052001953125
301.303,0.051483154296875
301.313,0.0838623046875
301.323,0.04083251953125
301.333,-0.07318115234375
301.343,-0.22998046875
301.353,-0.38134765625
301.363,-0.490478515625
301.373,-0.5498046875
301.383,-0.5625
301.393,-0.53125
301.403,-0.461181640625
301.413,-0.36083984375
301.423,-0.2406005859375
301.433,-0.11578369140625
301.443,-0.00696563720703125
301.453,0.06561279296875
301.463,0.08966064453125
301.473,0.058197021484375
301.481,-0.0299224853515625
301.491,-0.1568603515625
301.501,-0.2861328125
301.511,-0.3837890625
301.521,-0.4375
301.531,-0.458251953125
301.541,-0.478515625
301.551,-0.53369140625
301.561,-0.64013671875
301.571,-0.78662109375
301.581,-0.94921875
301.591,-1.103515625
301.601,-1.234375
301.611,-1.3271484375
301.621,-1.37890625
301.631,-1.3955078125
301.641,-1.3876953125
301.651,-1.359375
301.661,-1.3115234375
301.671,-1.24609375
301.679,-1.169921875
301.689,-1.091796875
301.699,-1.025390625
301.709,-0.982421875
301.719,-0.966796875
301.729,-0.97900390625
301.739,-1.0126953125
301.749,-1.0537109375
301.759,-1.09375
301.769,-1.126953125
301.779,-1.1513671875
301.789,-1.1630859375
301.799,-1.16015625
301.809,-1.142578125
301.819,-1.1103515625
301.829,-1.068359375
301.839,-1.0224609375
301.849,-0.98095703125
301.859,-0.95263671875
301.869,-0.9443359375
301.873,-1.203125
301.883,-1.2490234375
301.893,-1.26171875
301.903,-1.2451171875
301.913,-1.2060546875
301.923,-1.15234375
301.933,-1.0986328125
301.943,-1.05859375
301.953,-1.0322265625
301.963,-1.0146484375
301.973,-1
301.983,-0.986328125
301.993,-0.96435546875
302.003,-0.9287109375
302.013,-0.8876953125
302.023,-0.845703125
302.032,-0.80517578125
302.042,-0.77197265625
302.052,-0.75732421875
302.062,-0.77783203125
302.072,-0.830078125
302.082,-0.896484375
302.092,-0.9609375
302.102,-1.00390625
302.112,-1.013671875
302.122,-0.99169921875
302.132,-0.9443359375
302.142,-0.8720703125
302.152,-0.775390625
302.162,-0.6611328125
302.172,-0.55078125
302.182,-0.470947265625
302.192,-0.44287109375
302.202,-0.472412109375
302.212,-0.54931640625
302.222,-0.65234375
302.231,-0.748046875
302.241,-0.8037109375
302.251,-0.79931640625
302.261,-0.72314453125
302.271,-0.57177734375
302.281,-0.36572265625
302.291,-0.154541015625
302.301,-0.00100231170654297
302.311,0.048675537109375
302.321,-0.0139694213867188
302.331,-0.1519775390625
302.341,-0.310791015625
302.351,-0.44873046875
302.361,-0.53955078125
302.371,-0.57861328125
302.381,-0.57666015625
302.391,-0.54296875
302.401,-0.479736328125
302.411,-0.388427734375
302.421,-0.28662109375
302.429,-0.2020263671875
302.439,-0.1556396484375
302.449,-0.164794921875
302.459,-0.2296142578125
302.469,-0.331787109375
302.479,-0.45654296875
302.489,-0.58203125
302.499,-0.67138671875
302.509,-0.69677734375
302.519,-0.654296875
302.529,-0.556640625
302.539,-0.4296875
302.549,-0.306884765625
302.559,-0.22802734375
302.569,-0.2232666015625
302.579,-0.29345703125
302.589,-0.416015625
302.599,-0.5673828125
302.609,-0.7265625
302.619,-0.86767578125
302.623,-0.94287109375
302.633,-0.853515625
302.643,-0.7373046875
302.653,-0.5869140625
302.663,-0.412109375
302.673,-0.25048828125
302.683,-0.13623046875
302.693,-0.086669921875
302.703,-0.10369873046875
302.713,-0.1646728515625
302.723,-0.229736328125
302.733,-0.27001953125
302.743,-0.2705078125
302.753,-0.2230224609375
302.763,-0.1304931640625
302.773,-0.0136795043945312
302.782,0.08782958984375
302.792,0.1265869140625
302.802,0.07257080078125
302.812,-0.06768798828125
302.822,-0.251708984375
302.832,-0.418212890625
302.842,-0.51708984375
302.852,-0.52783203125
302.862,-0.456298828125
302.872,-0.328857421875
302.882,-0.186279296875
302.892,-0.06793212890625
302.902,0.00131893157958984
302.912,0.0157318115234375
302.922,-0.011810302734375
302.932,-0.054107666015625
302.942,-0.0784912109375
302.952,-0.06378173828125
302.962,-0.0145034790039062
302.972,0.047637939453125
302.981,0.101806640625
302.991,0.133544921875
303.001,0.1290283203125
303.011,0.07659912109375
303.021,-0.023651123046875
303.031,-0.1534423828125
303.041,-0.279296875
303.051,-0.365234375
303.061,-0.386962890625
303.071,-0.339599609375
303.081,-0.23779296875
303.091,-0.11138916015625
303.101,0.010955810546875
303.111,0.10711669921875
303.121,0.16162109375
303.131,0.1739501953125
303.141,0.1571044921875
303.151,0.12744140625
303.161,0.09765625
303.171,0.06854248046875
303.179,0.032501220703125
303.189,-0.0128555297851562
303.199,-0.06304931640625
303.209,-0.11663818359375
303.219,-0.1771240234375
303.229,-0.2457275390625
303.239,-0.311767578125
303.249,-0.350341796875
303.259,-0.33837890625
303.269,-0.27587890625
303.279,-0.1805419921875
303.289,-0.07177734375
303.299,0.030609130859375
303.309,0.11090087890625
303.319,0.1639404296875
303.329,0.196533203125
303.339,0.22021484375
303.349,0.2403564453125
303.359,0.251220703125
303.369,0.24365234375
303.373,0.042694091796875
303.383,0.044342041015625
303.393,0.07208251953125
303.403,0.108642578125
303.413,0.1400146484375
303.423,0.150390625
303.433,0.12078857421875
303.443,0.049285888671875
303.453,-0.040924072265625
303.463,-0.11773681640625
303.473,-0.158203125
303.483,-0.152099609375
303.493,-0.09942626953125
303.503,-0.0119094848632812
303.513,0.08880615234375
303.523,0.17822265625
303.532,0.2386474609375
303.542,0.2587890625
303.552,0.229248046875
303.562,0.1490478515625
303.572,0.037353515625
303.582,-0.0732421875
303.592,-0.1527099609375
303.602,-0.18505859375
303.612,-0.171142578125
303.622,-0.1229248046875
303.632,-0.0556640625
303.642,0.0188140869140625
303.652,0.0948486328125
303.662,0.1669921875
303.672,0.220458984375
303.682,0.238037109375
303.692,0.2174072265625
303.702,0.1708984375
303.712,0.11114501953125
303.722,0.04901123046875
303.731,-0.00270652770996094
303.741,-0.032623291015625
303.751,-0.036895751953125
303.761,-0.0173492431640625
303.771,0.02203369140625
303.781,0.0714111328125
303.791,0.11212158203125
303.801,0.12890625
303.811,0.12225341796875
303.821,0.10296630859375
303.831,0.0810546875
303.841,0.06451416015625
303.851,0.06195068359375
303.861,0.07501220703125
303.871,0.09271240234375
303.881,0.09930419921875
303.891,0.08526611328125
303.901,0.048675537109375
303.911,-0.00346183776855469
303.921,-0.053314208984375
303.929,-0.080322265625
303.939,-0.074951171875
303.949,-0.040771484375
303.959,0.0092010498046875
303.969,0.053375244140625
303.979,0.0684814453125
303.989,0.0445556640625
303.999,-0.00789642333984375
304.009,-0.06719970703125
304.019,-0.11474609375
304.029,-0.138916015625
304.039,-0.1336669921875
304.049,-0.0977783203125
304.059,-0.036773681640625
304.069,0.03558349609375
304.079,0.09771728515625
304.089,0.127685546875
304.099,0.11785888671875
304.109,0.077880859375
304.119,0.02545166015625
304.124,0.037811279296875
304.134,0.0601806640625
304.144,-0.00666046142578125
304.154,-0.1824951171875
304.164,-0.424560546875
304.174,-0.6357421875
304.184,-0.716796875
304.194,-0.62158203125
304.204,-0.3671875
304.214,-0.0165863037109375
304.224,0.335205078125
304.234,0.58984375
304.244,0.6826171875
304.254,0.61328125
304.264,0.443603515625
304.274,0.252197265625
304.283,0.09130859375
304.293,-0.0193328857421875
304.303,-0.07891845703125
304.313,-0.10174560546875
304.323,-0.1375732421875
304.333,-0.27783203125
304.343,-0.59130859375
304.353,-1.0625
304.363,-1.6123046875
304.373,-2.123046875
304.383,-2.455078125
304.393,-2.5078125
304.403,-2.27734375
304.413,-1.84765625
304.423,-1.3505859375
304.433,-0.90234375
304.443,-0.55615234375
304.453,-0.3017578125
304.463,-0.11187744140625
304.473,0.0142440795898438
304.481,0.06573486328125
304.491,0.04852294921875
304.501,-0.0120468139648438
304.511,-0.08575439453125
304.521,-0.149169921875
304.531,-0.1873779296875
304.541,-0.1851806640625
304.551,-0.126708984375
304.561,-0.0114212036132812
304.571,0.11602783203125
304.581,0.161376953125
304.591,0.06787109375
304.601,-0.11248779296875
304.611,-0.287841796875
304.621,-0.412109375
304.631,-0.484130859375
304.641,-0.5224609375
304.651,-0.54296875
304.661,-0.53466796875
304.671,-0.466552734375
304.679,-0.315673828125
304.689,-0.0977783203125
304.699,0.1392822265625
304.709,0.341064453125
304.719,0.455322265625
304.729,0.445556640625
304.739,0.315185546875
304.749,0.10638427734375
304.759,-0.12042236328125
304.769,-0.297607421875
304.779,-0.37255859375
304.789,-0.345947265625
304.799,-0.274658203125
304.809,-0.21875
304.819,-0.1910400390625
304.829,-0.165283203125
304.839,-0.118408203125
304.849,-0.060882568359375
304.859,-0.0244140625
304.869,-0.024993896484375
304.873,-0.12298583984375
304.883,-0.09521484375
304.893,-0.0546875
304.903,-0.0226287841796875
304.913,-0.0102157592773438
304.923,-0.017333984375
304.933,-0.038421630859375
304.943,-0.0711669921875
304.953,-0.12225341796875
304.963,-0.192138671875
304.973,-0.259033203125
304.983,-0.29833984375
304.993,-0.30615234375
305.003,-0.293212890625
305.013,-0.26904296875
305.023,-0.2305908203125
305.032,-0.1666259765625
305.042,-0.0838623046875
305.052,-0.016265869140625
305.062,0.006072998046875
305.072,-0.0162811279296875
305.082,-0.06048583984375
305.092,-0.10272216796875
305.102,-0.1334228515625
305.112,-0.163330078125
305.122,-0.2054443359375
305.132,-0.249267578125
305.142,-0.269287109375
305.152,-0.2578125
305.162,-0.2281494140625
305.172,-0.19921875
305.182,-0.185302734375
305.192,-0.1815185546875
305.202,-0.1654052734375
305.212,-0.1280517578125
305.222,-0.0863037109375
305.231,-0.0626220703125
305.241,-0.07086181640625
305.251,-0.10736083984375
305.261,-0.145751953125
305.271,-0.156005859375
305.281,-0.1356201171875
305.291,-0.1085205078125
305.301,-0.099365234375
305.311,-0.1190185546875
305.321,-0.155029296875
305.331,-0.1767578125
305.341,-0.169189453125
305.351,-0.1488037109375
305.361,-0.141845703125
305.371,-0.1663818359375
305.381,-0.2235107421875
305.391,-0.287109375
305.401,-0.319580078125
305.411,-0.30615234375
305.421,-0.261962890625
305.429,-0.21435546875
305.439,-0.184814453125
305.449,-0.17529296875
305.459,-0.1624755859375
305.469,-0.122802734375
305.479,-0.056732177734375
305.489,0.0103836059570312
305.499,0.038330078125
305.509,-0.00718307495117188
305.519,-0.1243896484375
305.529,-0.277587890625
305.539,-0.42431640625
305.549,-0.5234375
305.559,-0.546875
305.569,-0.497802734375
305.579,-0.400634765625
305.589,-0.286376953125
305.599,-0.190185546875
305.609,-0.1431884765625
305.619,-0.151611328125
305.623,-0.151123046875
305.633,-0.0662841796875
305.643,-0.00251388549804688
305.653,0.007537841796875
305.663,-0.047393798828125
305.673,-0.15576171875
305.683,-0.296142578125
305.693,-0.4365234375
305.703,-0.54150390625
305.713,-0.58740234375
305.723,-0.56591796875
305.733,-0.484130859375
305.743,-0.36962890625
305.753,-0.262451171875
305.763,-0.196533203125
305.773,-0.1910400390625
305.782,-0.2476806640625
305.792,-0.34716796875
305.802,-0.458740234375
305.812,-0.54736328125
305.822,-0.57763671875
305.832,-0.533203125
305.842,-0.421630859375
305.852,-0.272216796875
305.862,-0.1278076171875
305.872,-0.0200347900390625
305.882,0.04486083984375
305.892,0.07110595703125
305.902,0.061859130859375
305.912,0.0242156982421875
305.922,-0.0321044921875
305.932,-0.1009521484375
305.942,-0.1768798828125
305.952,-0.251953125
305.962,-0.318115234375
305.972,-0.367431640625
305.98,-0.3955078125
305.99,-0.3994140625
306,-0.380126953125
306.01,-0.3388671875
306.02,-0.27978515625
306.03,-0.20947265625
306.04,-0.134765625
306.05,-0.06463623046875
306.06,-0.0137786865234375
306.07,0.00572586059570312
306.08,-0.011199951171875
306.09,-0.06591796875
306.1,-0.1517333984375
306.11,-0.251953125
306.12,-0.349853515625
306.13,-0.432861328125
306.14,-0.49267578125
306.15,-0.52685546875
306.16,-0.53564453125
306.17,-0.52099609375
306.179,-0.49267578125
306.189,-0.463134765625
306.199,-0.443359375
306.209,-0.44384765625
306.219,-0.467041015625
306.229,-0.5068359375
306.239,-0.5517578125
306.249,-0.5859375
306.259,-0.58935546875
306.269,-0.5517578125
306.279,-0.47705078125
306.289,-0.3818359375
306.299,-0.291748046875
306.309,-0.2242431640625
306.319,-0.180419921875
306.329,-0.15869140625
306.339,-0.1533203125
306.349,-0.1552734375
306.359,-0.16064453125
306.369,-0.163818359375
306.373,-0.05242919921875
306.383,-0.0112152099609375
306.393,0.0225830078125
306.403,0.0306854248046875
306.413,0.000648975372314453
306.423,-0.06689453125
306.433,-0.1595458984375
306.443,-0.2493896484375
306.453,-0.308349609375
306.463,-0.328125
306.473,-0.314453125
306.483,-0.278564453125
306.493,-0.2386474609375
306.503,-0.213623046875
306.513,-0.2188720703125
306.523,-0.26123046875
306.532,-0.329833984375
306.542,-0.4111328125
306.552,-0.5087890625
306.562,-0.63720703125
306.572,-0.802734375
306.582,-0.99267578125
306.592,-1.1748046875
306.602,-1.3154296875
306.612,-1.3935546875
306.622,-1.404296875
306.632,-1.361328125
306.642,-1.2919921875
306.652,-1.2197265625
306.662,-1.150390625
306.672,-1.078125
306.682,-1.0078125
306.692,-0.9580078125
306.702,-0.95458984375
306.712,-1.0244140625
306.722,-1.19140625
306.73,-1.462890625
306.74,-1.8056640625
306.75,-2.134765625
306.76,-2.3515625
306.77,-2.404296875
306.78,-2.30078125
306.79,-2.08203125
306.8,-1.7734375
306.81,-1.3818359375
306.82,-0.91943359375
306.83,-0.44580078125
306.84,-0.06658935546875
306.85,0.11492919921875
306.86,0.0758056640625
306.87,-0.11175537109375
306.88,-0.3427734375
306.89,-0.5400390625
306.9,-0.6611328125
306.91,-0.6806640625
306.92,-0.57958984375
306.929,-0.35302734375
306.939,-0.0207672119140625
306.949,0.363037109375
306.959,0.7060546875
306.969,0.900390625
306.979,0.88525390625
306.989,0.69091796875
306.999,0.406494140625
307.009,0.112060546875
307.019,-0.1502685546875
307.029,-0.38232421875
307.039,-0.62646484375
307.049,-0.93408203125
307.059,-1.3056640625
307.069,-1.666015625
307.079,-1.9150390625
307.089,-2.0078125
307.099,-1.9609375
307.109,-1.8193359375
307.119,-1.6376953125
307.124,-1.234375
307.134,-1.2041015625
307.144,-1.203125
307.154,-1.2119140625
307.164,-1.212890625
307.174,-1.203125
307.184,-1.1865234375
307.194,-1.17578125
307.204,-1.17578125
307.214,-1.1748046875
307.224,-1.1591796875
307.234,-1.1201171875
307.244,-1.064453125
307.254,-1.005859375
307.264,-0.9560546875
307.274,-0.923828125
307.282,-0.90625
307.292,-0.8955078125
307.302,-0.8857421875
307.312,-0.88525390625
307.322,-0.9033203125
307.332,-0.94287109375
307.342,-1
307.352,-1.0673828125
307.362,-1.1318359375
307.372,-1.171875
307.382,-1.17578125
307.392,-1.13671875
307.402,-1.056640625
307.412,-0.9443359375
307.422,-0.81982421875
307.432,-0.71435546875
307.442,-0.65185546875
307.452,-0.646484375
307.462,-0.70068359375
307.472,-0.80224609375
307.48,-0.92822265625
307.49,-1.0478515625
307.5,-1.140625
307.51,-1.1953125
307.52,-1.2060546875
307.53,-1.1767578125
307.54,-1.1240234375
307.55,-1.0615234375
307.56,-0.990234375
307.57,-0.91796875
307.58,-0.86279296875
307.59,-0.841796875
307.6,-0.8544921875
307.61,-0.9013671875
307.62,-0.974609375
307.63,-1.04296875
307.64,-1.0810546875
307.65,-1.0859375
307.66,-1.0556640625
307.67,-0.99853515625
307.679,-0.9365234375
307.689,-0.8857421875
307.699,-0.8505859375
307.709,-0.8427734375
307.719,-0.859375
307.729,-0.88525390625
307.739,-0.919921875
307.749,-0.9599609375
307.759,-0.98779296875
307.769,-1.0068359375
307.779,-1.0361328125
307.789,-1.0615234375
307.799,-1.0537109375
307.809,-1.0185546875
307.819,-0.9853515625
307.829,-0.95849609375
307.839,-0.9228515625
307.849,-0.888671875
307.859,-0.89013671875
307.869,-0.927734375
307.873,-0.91748046875
307.883,-0.8857421875
307.893,-0.8662109375
307.903,-0.8798828125
307.913,-0.90087890625
307.923,-0.890625
307.933,-0.849609375
307.943,-0.80908203125
307.953,-0.77880859375
307.963,-0.73974609375
307.973,-0.6953125
307.983,-0.68115234375
307.993,-0.716796875
308.003,-0.77392578125
308.013,-0.81689453125
308.023,-0.84423828125
308.032,-0.865234375
308.042,-0.86865234375
308.052,-0.83154296875
308.062,-0.75732421875
308.072,-0.67626953125
308.082,-0.61083984375
308.092,-0.5517578125
308.102,-0.488037109375
308.112,-0.43505859375
308.122,-0.42529296875
308.132,-0.46923828125
308.142,-0.53515625
308.152,-0.57861328125
308.162,-0.5986328125
308.172,-0.638671875
308.182,-0.72509765625
308.192,-0.822265625
308.202,-0.86181640625
308.212,-0.82177734375
308.222,-0.7548828125
308.23,-0.73193359375
308.24,-0.7666015625
308.25,-0.79638671875
308.26,-0.74853515625
308.27,-0.61474609375
308.28,-0.4658203125
308.29,-0.398193359375
308.3,-0.456787109375
308.31,-0.60009765625
308.32,-0.7353515625
308.33,-0.7822265625
308.34,-0.71923828125
308.35,-0.59423828125
308.36,-0.492919921875
308.37,-0.474853515625
308.38,-0.53076171875
308.39,-0.59765625
308.4,-0.6044921875
308.41,-0.52197265625
308.42,-0.382080078125
308.429,-0.249755859375
308.439,-0.177001953125
308.449,-0.16796875
308.459,-0.18408203125
308.469,-0.1810302734375
308.479,-0.1435546875
308.489,-0.08587646484375
308.499,-0.0328369140625
308.509,-0.0105056762695312
308.519,-0.039794921875
308.529,-0.12109375
308.539,-0.227783203125
308.549,-0.32177734375
308.559,-0.37939453125
308.569,-0.408447265625
308.579,-0.434326171875
308.589,-0.47119140625
308.599,-0.50390625
308.609,-0.493408203125
308.619,-0.412353515625
308.623,-0.00203895568847656
308.633,-0.06292724609375
308.643,-0.1639404296875
308.653,-0.274658203125
308.663,-0.34814453125
308.673,-0.34814453125
308.683,-0.27587890625
308.693,-0.170166015625
308.703,-0.07489013671875
308.713,-0.00432205200195312
308.723,0.055206298828125
308.733,0.11480712890625
308.743,0.159423828125
308.753,0.1595458984375
308.763,0.1019287109375
308.773,0.00692367553710938
308.782,-0.0889892578125
308.792,-0.162353515625
308.802,-0.208984375
308.812,-0.230224609375
308.822,-0.2249755859375
308.832,-0.1949462890625
308.842,-0.1534423828125
308.852,-0.1231689453125
308.862,-0.1187744140625
308.872,-0.134521484375
308.882,-0.1568603515625
308.892,-0.1820068359375
308.902,-0.216064453125
308.912,-0.26318359375
308.922,-0.3076171875
308.932,-0.31591796875
308.942,-0.27685546875
308.952,-0.218505859375
308.962,-0.1746826171875
308.972,-0.1514892578125
308.98,-0.134521484375
308.99,-0.113525390625
309,-0.0928955078125
309.01,-0.0762939453125
309.02,-0.050933837890625
309.03,-0.00529861450195312
309.04,0.05078125
309.05,0.10028076171875
309.06,0.1383056640625
309.07,0.173095703125
309.08,0.213623046875
309.09,0.25341796875
309.1,0.273193359375
309.11,0.2578125
309.12,0.2086181640625
309.13,0.13623046875
309.14,0.0552978515625
309.15,-0.018280029296875
309.16,-0.07379150390625
309.17,-0.1046142578125
309.179,-0.10382080078125
309.189,-0.0712890625
309.199,-0.0185089111328125
309.209,0.0369873046875
309.219,0.080322265625
309.229,0.1033935546875
309.239,0.10101318359375
309.249,0.07037353515625
309.259,0.0185394287109375
309.269,-0.035919189453125
309.279,-0.07269287109375
309.289,-0.08294677734375
309.299,-0.0694580078125
309.309,-0.033721923828125
309.319,0.025115966796875
309.329,0.09234619140625
309.339,0.1329345703125
309.349,0.11920166015625
309.359,0.059112548828125
309.369,-0.0130691528320312
309.373,0.0232391357421875
309.383,0.09442138671875
309.393,0.1463623046875
309.403,0.1640625
309.413,0.1422119140625
309.423,0.089599609375
309.433,0.031982421875
309.443,-0.00179004669189453
309.453,0.000765800476074219
309.463,0.036041259765625
309.473,0.098388671875
309.483,0.1778564453125
309.493,0.2474365234375
309.503,0.2734375
309.513,0.242431640625
309.523,0.166259765625
309.532,0.06561279296875
309.542,-0.033843994140625
309.552,-0.10601806640625
309.562,-0.136474609375
309.572,-0.1231689453125
309.582,-0.06982421875
309.592,0.014862060546875
309.602,0.1177978515625
309.612,0.2183837890625
309.622,0.281494140625
309.632,0.2734375
309.642,0.198974609375
309.652,0.0970458984375
309.662,-0.000203847885131836
309.672,-0.07281494140625
309.682,-0.10504150390625
309.692,-0.0992431640625
309.702,-0.0732421875
309.712,-0.0452880859375
309.722,-0.0328369140625
309.73,-0.0421142578125
309.74,-0.06304931640625
309.75,-0.0831298828125
309.76,-0.09063720703125
309.77,-0.07879638671875
309.78,-0.05413818359375
309.79,-0.0252685546875
309.8,0.00496673583984375
309.81,0.0294647216796875
309.82,0.042510986328125
309.83,0.046051025390625
309.84,0.04193115234375
309.85,0.03265380859375
309.86,0.0214385986328125
309.87,0.00706100463867188
309.88,-0.010040283203125
309.89,-0.02984619140625
309.9,-0.0574951171875
309.91,-0.0927734375
309.92,-0.1259765625
309.929,-0.142578125
309.939,-0.13525390625
309.949,-0.11688232421875
309.959,-0.10162353515625
309.969,-0.08636474609375
309.979,-0.0634765625
309.989,-0.031494140625
309.999,0.00565338134765625
310.009,0.043548583984375
310.019,0.08123779296875
310.029,0.1143798828125
310.039,0.1331787109375
310.049,0.127685546875
310.059,0.0936279296875
310.069,0.03741455078125
310.079,-0.028289794921875
310.089,-0.08978271484375
310.099,-0.134521484375
310.109,-0.1578369140625
310.119,-0.16259765625
310.124,-0.08245849609375
310.134,-0.07012939453125
310.144,-0.058197021484375
310.154,-0.035736083984375
310.164,0.00171184539794922
310.174,0.05035400390625
310.184,0.10491943359375
310.194,0.15673828125
310.204,0.188720703125
310.214,0.1856689453125
310.224,0.1448974609375
310.234,0.0760498046875
310.244,-0.00297737121582031
310.254,-0.07373046875
310.264,-0.11932373046875
310.274,-0.1234130859375
310.281,-0.07879638671875
310.291,0.00358772277832031
310.301,0.097412109375
310.311,0.1724853515625
310.321,0.2080078125
310.331,0.198974609375
310.341,0.1484375
310.351,0.05999755859375
310.361,-0.054718017578125
310.371,-0.16845703125
310.381,-0.2452392578125
310.391,-0.258056640625
310.401,-0.204345703125
310.411,-0.10101318359375
310.421,0.0243072509765625
310.431,0.1390380859375
310.441,0.2138671875
310.451,0.23486328125
310.461,0.2044677734375
310.471,0.1348876953125
310.48,0.046417236328125
310.49,-0.03680419921875
310.5,-0.09368896484375
310.51,-0.11572265625
310.52,-0.10467529296875
310.53,-0.062255859375
310.54,0.00345993041992188
310.55,0.07080078125
310.56,0.1214599609375
310.57,0.15283203125
310.58,0.162841796875
310.59,0.141357421875
310.6,0.0870361328125
310.61,0.0140838623046875
310.62,-0.05816650390625
310.63,-0.11529541015625
310.64,-0.146240234375
310.65,-0.1429443359375
310.66,-0.10943603515625
310.67,-0.061614990234375
310.679,-0.0132675170898438
310.689,0.0290374755859375
310.699,0.05780029296875
310.709,0.065185546875
310.719,0.052337646484375
310.729,0.03094482421875
310.739,0.0166015625
310.749,0.0182952880859375
310.759,0.032989501953125
310.769,0.05511474609375
310.779,0.0811767578125
310.789,0.0997314453125
310.799,0.0977783203125
310.809,0.07647705078125
310.819,0.040496826171875
310.829,-0.011016845703125
310.839,-0.0675048828125
310.849,-0.10638427734375
310.859,-0.1175537109375
310.869,-0.111572265625
310.873,-0.11639404296875
310.883,-0.1793212890625
310.893,-0.227783203125
310.903,-0.253662109375
310.913,-0.258544921875
310.923,-0.2398681640625
310.933,-0.2037353515625
310.943,-0.16552734375
310.953,-0.1328125
310.963,-0.10589599609375
310.973,-0.08770751953125
310.983,-0.08135986328125
310.993,-0.08154296875
311.003,-0.07830810546875
311.013,-0.06842041015625
311.023,-0.053070068359375
311.031,-0.0310821533203125
311.041,-0.0113296508789062
311.051,-0.0134429931640625
311.061,-0.042083740234375
311.071,-0.07940673828125
311.081,-0.1092529296875
311.091,-0.1324462890625
311.101,-0.1514892578125
311.111,-0.158203125
311.121,-0.1502685546875
311.131,-0.1326904296875
311.141,-0.1058349609375
311.151,-0.0738525390625
311.161,-0.051483154296875
311.171,-0.042999267578125
311.181,-0.03753662109375
311.191,-0.0294342041015625
311.201,-0.0218658447265625
311.211,-0.0136032104492188
311.221,-0.00347137451171875
311.23,0.000857830047607422
311.24,-0.00690841674804688
311.25,-0.0255279541015625
311.26,-0.05072021484375
311.27,-0.07598876953125
311.28,-0.09356689453125
311.29,-0.097412109375
311.3,-0.09173583984375
311.31,-0.09429931640625
311.32,-0.11871337890625
311.33,-0.1612548828125
311.34,-0.21240234375
311.35,-0.261962890625
311.36,-0.297607421875
311.37,-0.31298828125
311.38,-0.309814453125
311.39,-0.286865234375
311.4,-0.2447509765625
311.41,-0.1884765625
311.42,-0.12176513671875
311.429,-0.057708740234375
311.439,-0.0245819091796875
311.449,-0.040771484375
311.459,-0.1015625
311.469,-0.19189453125
311.479,-0.29345703125
311.489,-0.3818359375
311.499,-0.429931640625
311.509,-0.420654296875
311.519,-0.348388671875
311.529,-0.2216796875
311.539,-0.072021484375
311.549,0.05517578125
311.559,0.1268310546875
311.569,0.12744140625
311.579,0.054962158203125
311.589,-0.06610107421875
311.599,-0.18798828125
311.609,-0.275634765625
311.619,-0.32861328125
311.623,-0.379638671875
311.633,-0.295166015625
311.643,-0.177001953125
311.653,-0.046295166015625
311.663,0.06451416015625
311.673,0.12158203125
311.683,0.11627197265625
311.693,0.06622314453125
311.703,-0.00590896606445312
311.713,-0.0804443359375
311.723,-0.1466064453125
311.733,-0.2083740234375
311.743,-0.267578125
311.753,-0.311279296875
311.763,-0.330810546875
311.773,-0.333740234375
311.781,-0.322509765625
311.791,-0.2919921875
311.801,-0.2447509765625
311.811,-0.1885986328125
311.821,-0.1339111328125
311.831,-0.10321044921875
311.841,-0.11083984375
311.851,-0.14013671875
311.861,-0.159423828125
311.871,-0.1446533203125
311.881,-0.08917236328125
311.891,-0.0149993896484375
311.901,0.03765869140625
311.911,0.041595458984375
311.921,-0.0126190185546875
311.931,-0.12445068359375
311.941,-0.270751953125
311.951,-0.404296875
311.961,-0.48095703125
311.971,-0.482666015625
311.98,-0.421142578125
311.99,-0.34033203125
312,-0.289306640625
312.01,-0.28076171875
312.02,-0.29248046875
312.03,-0.29541015625
312.04,-0.263671875
312.05,-0.1982421875
312.06,-0.1378173828125
312.07,-0.1163330078125
312.08,-0.1292724609375
312.09,-0.15625
312.1,-0.18017578125
312.11,-0.1873779296875
312.12,-0.1854248046875
312.13,-0.197509765625
312.14,-0.2236328125
312.15,-0.243896484375
312.16,-0.25048828125
312.17,-0.248046875
312.179,-0.2454833984375
312.189,-0.255615234375
312.199,-0.2861328125
312.209,-0.339111328125
312.219,-0.408203125
312.229,-0.46826171875
312.239,-0.482666015625
312.249,-0.428955078125
312.259,-0.314453125
312.269,-0.173583984375
312.279,-0.053619384765625
312.289,0.0107650756835938
312.299,0.0133819580078125
312.309,-0.026611328125
312.319,-0.07708740234375
312.329,-0.1068115234375
312.339,-0.1044921875
312.349,-0.084716796875
312.359,-0.06842041015625
312.369,-0.0699462890625
312.373,-0.326904296875
312.383,-0.317626953125
312.393,-0.2666015625
312.403,-0.18994140625
312.413,-0.11041259765625
312.423,-0.052490234375
312.433,-0.03094482421875
312.443,-0.044830322265625
312.453,-0.0853271484375
312.463,-0.1444091796875
312.473,-0.2109375
312.483,-0.26904296875
312.493,-0.303955078125
312.503,-0.30419921875
312.513,-0.269775390625
312.523,-0.22119140625
312.531,-0.1895751953125
312.541,-0.1922607421875
312.551,-0.2244873046875
312.561,-0.269287109375
312.571,-0.310791015625
312.581,-0.346435546875
312.591,-0.38525390625
312.601,-0.429931640625
312.611,-0.46826171875
312.621,-0.48388671875
312.631,-0.471435546875
312.641,-0.44091796875
312.651,-0.412841796875
312.661,-0.40869140625
312.671,-0.43359375
312.681,-0.470703125
312.691,-0.5029296875
312.701,-0.5361328125
312.711,-0.5888671875
312.721,-0.66796875
312.73,-0.76123046875
312.74,-0.8525390625
312.75,-0.93408203125
312.76,-0.9912109375
312.77,-0.99951171875
312.78,-0.9453125
312.79,-0.83447265625
312.8,-0.685546875
312.81,-0.52099609375
312.82,-0.365478515625
312.83,-0.24169921875
312.84,-0.1729736328125
312.85,-0.175048828125
312.86,-0.2403564453125
312.87,-0.3349609375
312.88,-0.416259765625
312.89,-0.452392578125
312.9,-0.4365234375
312.91,-0.38525390625
312.92,-0.324951171875
312.929,-0.27490234375
312.939,-0.24462890625
312.949,-0.2353515625
312.959,-0.2418212890625
312.969,-0.267333984375
312.979,-0.331298828125
312.989,-0.43896484375
312.999,-0.5673828125
313.009,-0.68896484375
313.019,-0.7861328125
313.029,-0.84326171875
313.039,-0.85009765625
313.049,-0.8056640625
313.059,-0.7158203125
313.069,-0.5986328125
313.079,-0.483642578125
313.089,-0.39892578125
313.099,-0.365234375
313.109,-0.392333984375
313.119,-0.47119140625
313.124,-0.81640625
313.134,-0.76953125
313.144,-0.69775390625
313.154,-0.619140625
313.164,-0.5595703125
313.174,-0.537109375
313.184,-0.5517578125
313.194,-0.5908203125
313.204,-0.6337890625
313.214,-0.66259765625
313.224,-0.669921875
313.234,-0.65771484375
313.244,-0.6298828125
313.254,-0.59228515625
313.264,-0.5517578125
313.274,-0.51318359375
313.281,-0.476806640625
313.291,-0.437255859375
313.301,-0.390869140625
313.311,-0.343505859375
313.321,-0.30126953125
313.331,-0.26220703125
313.341,-0.2305908203125
313.351,-0.2255859375
313.361,-0.255859375
313.371,-0.309814453125
313.381,-0.3740234375
313.391,-0.435546875
313.401,-0.482177734375
313.411,-0.50830078125
313.421,-0.5087890625
313.431,-0.4755859375
313.441,-0.409423828125
313.451,-0.32421875
313.461,-0.239501953125
313.471,-0.1761474609375
313.48,-0.156982421875
313.49,-0.2061767578125
313.5,-0.320068359375
313.51,-0.4541015625
313.52,-0.55810546875
313.53,-0.603515625
313.54,-0.58154296875
313.55,-0.509765625
313.56,-0.429931640625
313.57,-0.3759765625
313.58,-0.355712890625
313.59,-0.36865234375
313.6,-0.413818359375
313.61,-0.476806640625
313.62,-0.537109375
313.63,-0.59130859375
313.64,-0.64208984375
313.65,-0.6865234375
313.66,-0.7138671875
313.67,-0.7177734375
313.679,-0.689453125
313.689,-0.62939453125
313.699,-0.55517578125
313.709,-0.48828125
313.719,-0.44189453125
313.729,-0.433837890625
313.739,-0.477783203125
313.749,-0.572265625
313.759,-0.70703125
313.769,-0.8515625
313.779,-0.962890625
313.789,-1.0107421875
313.799,-0.98828125
313.809,-0.900390625
313.819,-0.76123046875
313.829,-0.58740234375
313.839,-0.395263671875
313.849,-0.1943359375
313.859,-0.00260353088378906
313.869,0.1304931640625
313.873,-0.951171875
313.883,-1.2705078125
313.893,-1.5029296875
313.903,-1.6123046875
313.913,-1.5888671875
313.923,-1.4365234375
313.933,-1.1796875
313.943,-0.87158203125
313.953,-0.564453125
313.963,-0.28857421875
313.973,-0.06549072265625
313.983,0.08172607421875
313.993,0.14453125
314.003,0.137939453125
314.013,0.0875244140625
314.023,0.01544189453125
314.031,-0.07073974609375
314.041,-0.1805419921875
314.051,-0.32421875
314.061,-0.487060546875
314.071,-0.6259765625
314.081,-0.6962890625
314.091,-0.67822265625
314.101,-0.58056640625
314.111,-0.4365234375
314.121,-0.2900390625
314.131,-0.1790771484375
314.141,-0.124755859375
314.151,-0.13525390625
314.161,-0.2108154296875
314.171,-0.326904296875
314.181,-0.427490234375
314.191,-0.46142578125
314.201,-0.4248046875
314.211,-0.347412109375
314.221,-0.25830078125
314.23,-0.17578125
314.24,-0.112060546875
314.25,-0.0716552734375
314.26,-0.048553466796875
314.27,-0.03375244140625
314.28,-0.029510498046875
314.29,-0.04052734375
314.3,-0.05999755859375
314.31,-0.082763671875
314.32,-0.11260986328125
314.33,-0.145263671875
314.34,-0.1708984375
314.35,-0.1907958984375
314.36,-0.2091064453125
314.37,-0.217041015625
314.38,-0.20458984375
314.39,-0.17236328125
314.4,-0.12451171875
314.41,-0.06964111328125
314.42,-0.027008056640625
314.425,-0.2354736328125
314.435,-0.283447265625
314.445,-0.306884765625
314.455,-0.302001953125
314.465,-0.267578125
314.475,-0.202880859375
314.485,-0.11370849609375
314.495,-0.0131072998046875
314.505,0.080810546875
314.515,0.1458740234375
314.525,0.165283203125
314.535,0.1385498046875
314.545,0.07781982421875
314.555,-0.000532627105712891
314.565,-0.08502197265625
314.575,-0.173095703125
314.582,-0.258544921875
314.592,-0.32568359375
314.602,-0.360595703125
314.612,-0.349365234375
314.622,-0.278076171875
314.632,-0.15478515625
314.642,-0.0157012939453125
314.652,0.1015625
314.662,0.1802978515625
314.672,0.217529296875
314.682,0.217041015625
314.692,0.1915283203125
314.702,0.149658203125
314.712,0.08642578125
314.722,0.000144839286804199
314.732,-0.09027099609375
314.742,-0.1544189453125
314.752,-0.1749267578125
314.762,-0.1575927734375
314.772,-0.115234375
314.781,-0.055816650390625
314.791,0.00580978393554688
314.801,0.04498291015625
314.811,0.042938232421875
314.821,-0.000742435455322266
314.831,-0.0673828125
314.841,-0.131591796875
314.851,-0.1748046875
314.861,-0.1907958984375
314.871,-0.187255859375
314.881,-0.1766357421875
314.891,-0.15966796875
314.901,-0.127685546875
314.911,-0.08441162109375
314.921,-0.050811767578125
314.931,-0.041534423828125
314.941,-0.05084228515625
314.951,-0.0712890625
314.961,-0.1094970703125
314.971,-0.1715087890625
314.98,-0.2430419921875
314.99,-0.2939453125
315,-0.307373046875
315.01,-0.28515625
315.02,-0.2266845703125
315.03,-0.1270751953125
315.04,-0.00142478942871094
315.05,0.11553955078125
315.06,0.1956787109375
315.07,0.2337646484375
315.08,0.237060546875
315.09,0.20458984375
315.1,0.1282958984375
315.11,0.011810302734375
315.12,-0.116943359375
315.13,-0.2294921875
315.14,-0.32666015625
315.15,-0.42529296875
315.16,-0.5283203125
315.17,-0.6171875
315.175,-0.1187744140625
315.185,0.012603759765625
315.195,0.09747314453125
315.205,0.09588623046875
315.215,-0.07830810546875
315.225,-0.457763671875
315.235,-0.9404296875
315.245,-1.330078125
315.255,-1.466796875
315.265,-1.3232421875
315.275,-1.0205078125
315.285,-0.74169921875
315.295,-0.6064453125
315.305,-0.615234375
315.315,-0.67236328125
315.325,-0.6884765625
315.332,-0.64697265625
315.342,-0.56884765625
315.352,-0.46728515625
315.362,-0.373291015625
315.372,-0.337158203125
315.382,-0.36181640625
315.392,-0.359130859375
315.402,-0.218505859375
315.412,0.080810546875
315.422,0.421630859375
315.432,0.63525390625
315.442,0.65625
315.452,0.560546875
315.462,0.461669921875
315.472,0.410888671875
315.482,0.3662109375
315.492,0.2374267578125
315.502,-0.00888824462890625
315.512,-0.299560546875
315.522,-0.50830078125
315.531,-0.5517578125
315.541,-0.450927734375
315.551,-0.312255859375
315.561,-0.22900390625
315.571,-0.20947265625
315.581,-0.2044677734375
315.591,-0.1883544921875
315.601,-0.189453125
315.611,-0.252685546875
315.621,-0.3916015625
315.631,-0.55810546875
315.641,-0.671875
315.651,-0.68359375
315.661,-0.6025390625
315.671,-0.481201171875
315.681,-0.372314453125
315.691,-0.290771484375
315.701,-0.223388671875
315.711,-0.1688232421875
315.721,-0.146240234375
315.73,-0.1722412109375
315.74,-0.2484130859375
315.75,-0.359130859375
315.76,-0.47119140625
315.77,-0.54345703125
315.78,-0.5419921875
315.79,-0.44873046875
315.8,-0.284912109375
315.81,-0.1099853515625
315.82,0.013214111328125
315.83,0.0479736328125
315.84,-0.00269699096679688
315.85,-0.1014404296875
315.86,-0.1988525390625
315.87,-0.258056640625
315.88,-0.2666015625
315.89,-0.2347412109375
315.9,-0.188720703125
315.91,-0.1585693359375
315.92,-0.1602783203125
315.925,-0.287353515625
315.935,-0.234619140625
315.945,-0.16943359375
315.955,-0.11962890625
315.965,-0.1068115234375
315.975,-0.1422119140625
315.985,-0.2158203125
315.995,-0.296142578125
316.005,-0.34619140625
316.015,-0.337646484375
316.025,-0.259033203125
316.035,-0.12213134765625
316.045,0.034637451171875
316.055,0.1605224609375
316.065,0.2169189453125
316.075,0.19189453125
316.082,0.0928955078125
316.092,-0.060760498046875
316.102,-0.2379150390625
316.112,-0.397705078125
316.122,-0.50439453125
316.132,-0.54150390625
316.142,-0.51416015625
316.152,-0.4306640625
316.162,-0.297607421875
316.172,-0.1239013671875
316.182,0.0654296875
316.192,0.231689453125
316.202,0.33642578125
316.212,0.36083984375
316.222,0.312744140625
316.232,0.2125244140625
316.242,0.08294677734375
316.252,-0.051544189453125
316.262,-0.1767578125
316.272,-0.292236328125
316.281,-0.40185546875
316.291,-0.5087890625
316.301,-0.60986328125
316.311,-0.69287109375
316.321,-0.74755859375
316.331,-0.76123046875
316.341,-0.724609375
316.351,-0.6357421875
316.361,-0.50048828125
316.371,-0.32861328125
316.381,-0.1396484375
316.391,0.04412841796875
316.401,0.2010498046875
316.411,0.305419921875
316.421,0.333740234375
316.431,0.28125
316.441,0.1583251953125
316.451,-0.017730712890625
316.461,-0.2213134765625
316.471,-0.424560546875
316.48,-0.6064453125
316.49,-0.7509765625
316.5,-0.84716796875
316.51,-0.892578125
316.52,-0.89208984375
316.53,-0.85888671875
316.54,-0.8076171875
316.55,-0.7470703125
316.56,-0.68115234375
316.57,-0.61083984375
316.58,-0.53125
316.59,-0.437255859375
316.6,-0.328125
316.61,-0.20751953125
316.62,-0.0860595703125
316.63,0.020721435546875
316.64,0.10150146484375
316.65,0.1474609375
316.66,0.1466064453125
316.67,0.0985107421875
316.674,-0.2288818359375
316.684,-0.2276611328125
316.694,-0.2138671875
316.704,-0.2027587890625
316.714,-0.204345703125
316.724,-0.2254638671875
316.734,-0.29150390625
316.744,-0.4384765625
316.754,-0.66845703125
316.764,-0.93310546875
316.774,-1.1591796875
316.784,-1.3037109375
316.794,-1.3642578125
316.804,-1.3642578125
316.814,-1.3125
316.824,-1.2265625
316.832,-1.1435546875
316.842,-1.1142578125
316.852,-1.1630859375
316.862,-1.2900390625
316.872,-1.47265625
316.882,-1.6787109375
316.892,-1.87109375
316.902,-2.017578125
316.912,-2.111328125
316.922,-2.15625
316.932,-2.134765625
316.942,-2.0234375
316.952,-1.833984375
316.962,-1.6220703125
316.972,-1.458984375
316.982,-1.3681640625
316.992,-1.3212890625
317.002,-1.283203125
317.012,-1.24609375
317.022,-1.2060546875
317.031,-1.140625
317.041,-1.037109375
317.051,-0.9326171875
317.061,-0.89990234375
317.071,-0.99267578125
317.081,-1.1875
317.091,-1.380859375
317.101,-1.4580078125
317.111,-1.392578125
317.121,-1.2666015625
317.131,-1.197265625
317.141,-1.2509765625
317.151,-1.396484375
317.161,-1.5458984375
317.171,-1.6455078125
317.181,-1.6884765625
317.191,-1.69140625
317.201,-1.669921875
317.211,-1.634765625
317.221,-1.5791015625
317.23,-1.5009765625
317.24,-1.412109375
317.25,-1.330078125
317.26,-1.263671875
317.27,-1.2177734375
317.28,-1.1943359375
317.29,-1.1884765625
317.3,-1.189453125
317.31,-1.177734375
317.32,-1.1396484375
317.33,-1.0869140625
317.34,-1.0458984375
317.35,-1.0302734375
317.36,-1.0361328125
317.37,-1.0546875
317.38,-1.0693359375
317.39,-1.0625
317.4,-1.0263671875
317.41,-0.97265625
317.42,-0.91796875
317.424,-1.0166015625
317.434,-1.048828125
317.444,-1.0439453125
317.454,-1.01171875
317.464,-0.98095703125
317.474,-0.97216796875
317.484,-0.99365234375
317.494,-1.0380859375
317.504,-1.091796875
317.514,-1.134765625
317.524,-1.1494140625
317.534,-1.1337890625
317.544,-1.09375
317.554,-1.0390625
317.564,-0.97607421875
317.574,-0.91015625
317.582,-0.85205078125
317.592,-0.8125
317.602,-0.79443359375
317.612,-0.7900390625
317.622,-0.78955078125
317.632,-0.78515625
317.642,-0.77197265625
317.652,-0.75048828125
317.662,-0.7333984375
317.672,-0.7333984375
317.682,-0.75439453125
317.692,-0.79150390625
317.702,-0.83984375
317.712,-0.89453125
317.722,-0.9453125
317.732,-0.98193359375
317.742,-1
317.752,-0.9970703125
317.762,-0.9716796875
317.772,-0.92529296875
317.781,-0.8720703125
317.791,-0.83203125
317.801,-0.81494140625
317.811,-0.8203125
317.821,-0.83984375
317.831,-0.86181640625
317.841,-0.880859375
317.851,-0.8955078125
317.861,-0.90576171875
317.871,-0.91552734375
317.881,-0.92333984375
317.891,-0.91943359375
317.901,-0.904296875
317.911,-0.8857421875
317.921,-0.8671875
317.931,-0.85302734375
317.941,-0.845703125
317.951,-0.841796875
317.961,-0.83935546875
317.971,-0.83740234375
317.98,-0.8349609375
317.99,-0.83203125
318,-0.8271484375
318.01,-0.8154296875
318.02,-0.79931640625
318.03,-0.78466796875
318.04,-0.7763671875
318.05,-0.77783203125
318.06,-0.787109375
318.07,-0.79345703125
318.08,-0.78564453125
318.09,-0.763671875
318.1,-0.73046875
318.11,-0.685546875
318.12,-0.63134765625
318.13,-0.58251953125
318.14,-0.5556640625
318.15,-0.56005859375
318.16,-0.59521484375
318.17,-0.65283203125
318.175,-0.7841796875
318.185,-0.7509765625
318.195,-0.70361328125
318.205,-0.6572265625
318.215,-0.62744140625
318.225,-0.61376953125
318.235,-0.6083984375
318.245,-0.60791015625
318.255,-0.6123046875
318.265,-0.6171875
318.275,-0.61279296875
318.285,-0.59326171875
318.295,-0.56103515625
318.305,-0.52490234375
318.315,-0.49462890625
318.325,-0.474853515625
318.332,-0.461181640625
318.342,-0.446044921875
318.352,-0.426513671875
318.362,-0.409423828125
318.372,-0.4052734375
318.382,-0.414794921875
318.392,-0.429443359375
318.402,-0.449462890625
318.412,-0.48388671875
318.422,-0.5263671875
318.432,-0.54931640625
318.442,-0.53564453125
318.452,-0.50341796875
318.462,-0.4814453125
318.472,-0.478759765625
318.482,-0.473876953125
318.492,-0.438232421875
318.502,-0.369873046875
318.512,-0.305419921875
318.522,-0.293701171875
318.531,-0.351318359375
318.541,-0.449462890625
318.551,-0.53857421875
318.561,-0.5810546875
318.571,-0.5791015625
318.581,-0.5673828125
318.591,-0.5654296875
318.601,-0.5556640625
318.611,-0.5205078125
318.621,-0.469970703125
318.631,-0.4287109375
318.641,-0.424072265625
318.651,-0.47412109375
318.661,-0.56689453125
318.671,-0.65478515625
318.681,-0.689453125
318.691,-0.6513671875
318.701,-0.54296875
318.711,-0.376708984375
318.721,-0.181640625
318.729,-0.0133895874023438
318.739,0.07293701171875
318.749,0.0654296875
318.759,0.00341987609863281
318.769,-0.055084228515625
318.779,-0.07611083984375
318.789,-0.059967041015625
318.799,-0.0168304443359375
318.809,0.055023193359375
318.819,0.159912109375
318.829,0.270751953125
318.839,0.326416015625
318.849,0.287353515625
318.859,0.1748046875
318.869,0.044403076171875
318.879,-0.06280517578125
318.889,-0.126708984375
318.899,-0.1336669921875
318.909,-0.08306884765625
318.919,-0.00513076782226562
318.924,-0.11138916015625
318.934,-0.12042236328125
318.944,-0.10321044921875
318.954,-0.0645751953125
318.964,-0.032440185546875
318.974,-0.047332763671875
318.984,-0.1177978515625
318.994,-0.1982421875
319.004,-0.22509765625
319.014,-0.1771240234375
319.024,-0.0987548828125
319.034,-0.054718017578125
319.044,-0.0706787109375
319.054,-0.12158203125
319.064,-0.1612548828125
319.074,-0.162841796875
319.082,-0.1392822265625
319.092,-0.12261962890625
319.102,-0.13232421875
319.112,-0.166748046875
319.122,-0.2159423828125
319.132,-0.2685546875
319.142,-0.30517578125
319.152,-0.298583984375
319.162,-0.2301025390625
319.172,-0.11669921875
319.182,-0.00975799560546875
319.192,0.0537109375
319.202,0.0924072265625
319.212,0.151123046875
319.222,0.23388671875
319.232,0.287841796875
319.242,0.257568359375
319.252,0.14599609375
319.262,0.0145721435546875
319.272,-0.0791015625
319.281,-0.129150390625
319.291,-0.1622314453125
319.301,-0.1851806640625
319.311,-0.1729736328125
319.321,-0.11102294921875
319.331,-0.02313232421875
319.341,0.05908203125
319.351,0.1368408203125
319.361,0.227783203125
319.371,0.319580078125
319.381,0.36181640625
319.391,0.3125
319.401,0.1890869140625
319.411,0.058258056640625
319.421,-0.0277099609375
319.431,-0.06951904296875
319.441,-0.09515380859375
319.451,-0.11541748046875
319.461,-0.114990234375
319.471,-0.08099365234375
319.479,-0.0241241455078125
319.489,0.03704833984375
319.499,0.091552734375
319.509,0.1290283203125
319.519,0.1361083984375
319.529,0.10589599609375
319.539,0.039398193359375
319.549,-0.055816650390625
319.559,-0.1614990234375
319.569,-0.25146484375
319.579,-0.30517578125
319.589,-0.31494140625
319.599,-0.28759765625
319.609,-0.2413330078125
319.619,-0.1942138671875
319.629,-0.154296875
319.639,-0.12298583984375
319.649,-0.0989990234375
319.659,-0.079833984375
319.669,-0.06561279296875
319.673,0.056854248046875
319.683,0.07708740234375
319.693,0.07440185546875
319.703,0.04266357421875
319.713,-0.0124282836914062
319.723,-0.080322265625
319.733,-0.152587890625
319.743,-0.21728515625
319.753,-0.257568359375
319.763,-0.264892578125
319.773,-0.2442626953125
319.783,-0.2037353515625
319.793,-0.1505126953125
319.803,-0.09881591796875
319.813,-0.06866455078125
319.823,-0.067138671875
319.832,-0.08111572265625
319.842,-0.09515380859375
319.852,-0.10418701171875
319.862,-0.1048583984375
319.872,-0.0906982421875
319.882,-0.062042236328125
319.892,-0.027099609375
319.902,0.00739288330078125
319.912,0.037109375
319.922,0.059600830078125
319.932,0.078369140625
319.942,0.0963134765625
319.952,0.10516357421875
319.962,0.09521484375
319.972,0.06610107421875
319.982,0.0190277099609375
319.992,-0.045989990234375
320.002,-0.1234130859375
320.012,-0.2034912109375
320.022,-0.27294921875
320.031,-0.31884765625
320.041,-0.3388671875
320.051,-0.33837890625
320.061,-0.320556640625
320.071,-0.28759765625
320.081,-0.2489013671875
320.091,-0.2144775390625
320.101,-0.1846923828125
320.111,-0.155029296875
320.121,-0.1292724609375
320.131,-0.11065673828125
320.141,-0.0941162109375
320.151,-0.07763671875
320.161,-0.0626220703125
320.171,-0.0452880859375
320.181,-0.0242156982421875
320.191,-0.00342369079589844
320.201,0.0176544189453125
320.211,0.04302978515625
320.221,0.07025146484375
320.229,0.0897216796875
320.239,0.0927734375
320.249,0.07550048828125
320.259,0.034942626953125
320.269,-0.03216552734375
320.279,-0.11810302734375
320.289,-0.204345703125
320.299,-0.275634765625
320.309,-0.3232421875
320.319,-0.33740234375
320.329,-0.307861328125
320.339,-0.2335205078125
320.349,-0.1295166015625
320.359,-0.013214111328125
320.369,0.10247802734375
320.379,0.1954345703125
320.389,0.244140625
320.399,0.2529296875
320.409,0.24267578125
320.419,0.224365234375
320.424,-0.03314208984375
320.434,-0.09100341796875
320.444,-0.12091064453125
320.454,-0.109130859375
320.464,-0.059783935546875
320.474,0.0062103271484375
320.484,0.06817626953125
320.494,0.10986328125
320.504,0.11529541015625
320.514,0.08245849609375
320.524,0.0281524658203125
320.534,-0.0291595458984375
320.544,-0.07562255859375
320.554,-0.101318359375
320.564,-0.10614013671875
320.574,-0.09619140625
320.582,-0.0767822265625
320.592,-0.0545654296875
320.602,-0.031524658203125
320.612,-0.00481796264648438
320.622,0.023834228515625
320.632,0.0516357421875
320.642,0.0775146484375
320.652,0.09515380859375
320.662,0.0994873046875
320.672,0.093505859375
320.682,0.07916259765625
320.692,0.05645751953125
320.702,0.0287628173828125
320.712,0.000112056732177734
320.722,-0.025543212890625
320.732,-0.045867919921875
320.742,-0.06292724609375
320.752,-0.07855224609375
320.762,-0.09356689453125
320.772,-0.1077880859375
320.781,-0.11566162109375
320.791,-0.11370849609375
320.801,-0.1102294921875
320.811,-0.1168212890625
320.821,-0.1317138671875
320.831,-0.142578125
320.841,-0.1419677734375
320.851,-0.1300048828125
320.861,-0.1070556640625
320.871,-0.073486328125
320.881,-0.035430908203125
320.891,-0.00179672241210938
320.901,0.0262298583984375
320.911,0.052154541015625
320.921,0.0718994140625
320.931,0.0751953125
320.941,0.0545654296875
320.951,0.0108489990234375
320.961,-0.049774169921875
320.971,-0.11932373046875
320.979,-0.1865234375
320.989,-0.2364501953125
320.999,-0.2587890625
321.009,-0.255859375
321.019,-0.2335205078125
321.029,-0.1925048828125
321.039,-0.1380615234375
321.049,-0.0880126953125
321.059,-0.06134033203125
321.069,-0.06536865234375
321.079,-0.09588623046875
321.089,-0.1427001953125
321.099,-0.1943359375
321.109,-0.237060546875
321.119,-0.25341796875
321.129,-0.2333984375
321.139,-0.1846923828125
321.149,-0.130859375
321.159,-0.095703125
321.169,-0.097412109375
321.173,-0.46484375
321.183,-0.52685546875
321.193,-0.5947265625
321.203,-0.68115234375
321.213,-0.7900390625
321.223,-0.89892578125
321.233,-0.9892578125
321.243,-1.0654296875
321.253,-1.125
321.263,-1.1552734375
321.273,-1.1552734375
321.283,-1.1279296875
321.293,-1.083984375
321.303,-1.0439453125
321.313,-1.01171875
321.323,-0.97607421875
321.332,-0.94287109375
321.342,-0.912109375
321.352,-0.873046875
321.362,-0.8310546875
321.372,-0.80419921875
321.382,-0.7900390625
321.392,-0.78173828125
321.402,-0.7861328125
321.412,-0.80322265625
321.422,-0.81298828125
321.432,-0.8115234375
321.442,-0.818359375
321.452,-0.84130859375
321.462,-0.85986328125
321.472,-0.85986328125
321.482,-0.86181640625
321.492,-0.89208984375
321.502,-0.9345703125
321.512,-0.95361328125
321.522,-0.943359375
321.531,-0.93310546875
321.541,-0.94140625
321.551,-0.94482421875
321.561,-0.91064453125
321.571,-0.85009765625
321.581,-0.8037109375
321.591,-0.78955078125
321.601,-0.78515625
321.611,-0.77392578125
321.621,-0.76611328125
321.631,-0.76806640625
321.641,-0.7578125
321.651,-0.70947265625
321.661,-0.63916015625
321.671,-0.587890625
321.681,-0.5693359375
321.691,-0.55322265625
321.701,-0.50732421875
321.711,-0.44140625
321.721,-0.3984375
321.729,-0.40625
321.739,-0.43798828125
321.749,-0.446044921875
321.759,-0.419189453125
321.769,-0.39599609375
321.779,-0.42236328125
321.789,-0.5029296875
321.799,-0.59423828125
321.809,-0.64306640625
321.819,-0.6396484375
321.829,-0.6328125
321.839,-0.6787109375
321.849,-0.7763671875
321.859,-0.86474609375
321.869,-0.876953125
321.879,-0.79931640625
321.889,-0.67333984375
321.899,-0.56298828125
321.909,-0.5029296875
321.919,-0.478759765625
321.924,0.047637939453125
321.934,0.00176906585693359
321.944,-0.1793212890625
321.954,-0.44384765625
321.964,-0.71142578125
321.974,-0.9033203125
321.984,-0.970703125
321.994,-0.90478515625
322.004,-0.74560546875
322.014,-0.56884765625
322.024,-0.45654296875
322.034,-0.45361328125
322.044,-0.548828125
322.054,-0.67822265625
322.064,-0.76025390625
322.074,-0.73876953125
322.083,-0.59814453125
322.093,-0.3623046875
322.103,-0.08270263671875
322.113,0.1754150390625
322.123,0.3525390625
322.133,0.41650390625
322.143,0.377197265625
322.153,0.282470703125
322.163,0.1851806640625
322.173,0.1163330078125
322.183,0.079833984375
322.193,0.06201171875
322.203,0.043121337890625
322.213,0.0131072998046875
322.223,-0.0226898193359375
322.233,-0.055389404296875
322.243,-0.0826416015625
322.253,-0.106201171875
322.263,-0.1285400390625
322.273,-0.15478515625
322.281,-0.1876220703125
322.291,-0.218505859375
322.301,-0.2242431640625
322.311,-0.174072265625
322.321,-0.0477294921875
322.331,0.138427734375
322.341,0.32958984375
322.351,0.455078125
322.361,0.4619140625
322.371,0.34814453125
322.381,0.164794921875
322.391,-0.028076171875
322.401,-0.194091796875
322.411,-0.313720703125
322.421,-0.3720703125
322.431,-0.360595703125
322.441,-0.290283203125
322.451,-0.1934814453125
322.461,-0.10638427734375
322.471,-0.052978515625
322.479,-0.044158935546875
322.489,-0.072021484375
322.499,-0.10638427734375
322.509,-0.1138916015625
322.519,-0.0804443359375
322.529,-0.017059326171875
322.539,0.049346923828125
322.549,0.0926513671875
322.559,0.09930419921875
322.569,0.06768798828125
322.579,0.008392333984375
322.589,-0.055877685546875
322.599,-0.10675048828125
322.609,-0.14013671875
322.619,-0.1505126953125
322.629,-0.1220703125
322.639,-0.046173095703125
322.649,0.06475830078125
322.659,0.1822509765625
322.669,0.2744140625
322.673,-0.06866455078125
322.683,-0.201904296875
322.693,-0.294189453125
322.703,-0.321533203125
322.713,-0.272216796875
322.723,-0.15625
322.733,-0.00647735595703125
322.743,0.1307373046875
322.753,0.2208251953125
322.763,0.25634765625
322.773,0.248291015625
322.783,0.20849609375
322.793,0.1400146484375
322.803,0.043365478515625
322.813,-0.06414794921875
322.823,-0.153076171875
322.832,-0.2091064453125
322.842,-0.233642578125
322.852,-0.220947265625
322.862,-0.1632080078125
322.872,-0.0648193359375
322.882,0.063232421875
322.892,0.2041015625
322.902,0.323974609375
322.912,0.379638671875
322.922,0.344482421875
322.932,0.2261962890625
322.942,0.0626220703125
322.952,-0.10552978515625
322.962,-0.252197265625
322.972,-0.358154296875
322.982,-0.405029296875
322.992,-0.385009765625
323.002,-0.3076171875
323.012,-0.1971435546875
323.022,-0.08477783203125
323.03,-0.002227783203125
323.04,0.0275115966796875
323.05,0.00568389892578125
323.06,-0.036590576171875
323.07,-0.06341552734375
323.08,-0.060638427734375
323.09,-0.0284881591796875
323.1,0.0325927734375
323.11,0.11224365234375
323.12,0.1845703125
323.13,0.2281494140625
323.14,0.2359619140625
323.15,0.207275390625
323.16,0.1512451171875
323.17,0.08734130859375
323.18,0.0290985107421875
323.19,-0.0164947509765625
323.2,-0.041229248046875
323.21,-0.04827880859375
323.22,-0.048187255859375
323.229,-0.040191650390625
323.239,-0.0243682861328125
323.249,-0.00989532470703125
323.259,0.00128078460693359
323.269,0.0109329223632812
323.279,0.016265869140625
323.289,0.0215911865234375
323.299,0.033447265625
323.309,0.046600341796875
323.319,0.054901123046875
323.329,0.057525634765625
323.339,0.0535888671875
323.349,0.04827880859375
323.359,0.04815673828125
323.369,0.052337646484375
323.379,0.06134033203125
323.389,0.07525634765625
323.399,0.0849609375
323.409,0.07928466796875
323.419,0.044097900390625
323.424,-0.5458984375
323.434,-0.60888671875
323.444,-0.6240234375
323.454,-0.52978515625
323.464,-0.2724609375
323.474,0.09130859375
323.484,0.398193359375
323.494,0.51025390625
323.504,0.437255859375
323.514,0.3173828125
323.524,0.279052734375
323.534,0.314453125
323.544,0.302001953125
323.554,0.136474609375
323.564,-0.1837158203125
323.574,-0.5546875
323.582,-0.814453125
323.592,-0.84033203125
323.602,-0.6533203125
323.612,-0.41015625
323.622,-0.28076171875
323.632,-0.306884765625
323.642,-0.370361328125
323.652,-0.300537109375
323.662,-0.0345458984375
323.672,0.32275390625
323.682,0.5830078125
323.692,0.619140625
323.702,0.4404296875
323.712,0.16259765625
323.722,-0.06744384765625
323.732,-0.132568359375
323.742,0.0062103271484375
323.752,0.291748046875
323.762,0.6064453125
323.772,0.826171875
323.78,0.875
323.79,0.76220703125
323.8,0.57080078125
323.81,0.40283203125
323.82,0.318603515625
323.83,0.297119140625
323.84,0.25732421875
323.85,0.1302490234375
323.86,-0.09271240234375
323.87,-0.371337890625
323.88,-0.64111328125
323.89,-0.83056640625
323.9,-0.8935546875
323.91,-0.81982421875
323.92,-0.61865234375
323.93,-0.329345703125
323.94,-0.0308685302734375
323.95,0.180908203125
323.96,0.2373046875
323.97,0.1326904296875
323.979,-0.081298828125
323.989,-0.330078125
323.999,-0.54150390625
324.009,-0.66162109375
324.019,-0.6611328125
324.029,-0.54345703125
324.039,-0.338134765625
324.049,-0.08258056640625
324.059,0.1876220703125
324.069,0.439697265625
324.079,0.638671875
324.089,0.75390625
324.099,0.771484375
324.109,0.693359375
324.119,0.52392578125
324.129,0.271240234375
324.139,-0.0428466796875
324.149,-0.38037109375
324.159,-0.6953125
324.169,-0.9482421875
324.173,-1.1416015625
324.183,-1.056640625
324.193,-0.9111328125
324.203,-0.65087890625
324.213,-0.251220703125
324.223,0.25439453125
324.233,0.78759765625
324.243,1.2587890625
324.253,1.591796875
324.263,1.74609375
324.273,1.74609375
324.283,1.6826171875
324.293,1.6611328125
324.303,1.7529296875
324.313,1.9912109375
324.323,2.380859375
324.332,2.86328125
324.342,3.328125
324.352,3.673828125
324.362,3.853515625
324.372,3.8671875
324.382,3.732421875
324.392,3.4765625
324.402,3.126953125
324.412,2.708984375
324.422,2.259765625
324.432,1.8349609375
324.442,1.505859375
324.452,1.32421875
324.462,1.294921875
324.472,1.375
324.482,1.474609375
324.492,1.498046875
324.502,1.38671875
324.512,1.1337890625
324.522,0.78125
324.53,0.398681640625
324.54,0.0615234375
324.55,-0.172119140625
324.56,-0.278076171875
324.57,-0.269775390625
324.58,-0.1827392578125
324.59,-0.055633544921875
324.6,0.0687255859375
324.61,0.1484375
324.62,0.162353515625
324.63,0.1162109375
324.64,0.0271148681640625
324.65,-0.08123779296875
324.66,-0.1768798828125
324.67,-0.230224609375
324.68,-0.2265625
324.69,-0.1673583984375
324.7,-0.07177734375
324.71,0.02740478515625
324.72,0.105712890625
324.729,0.15283203125
324.739,0.1612548828125
324.749,0.1312255859375
324.759,0.07391357421875
324.769,-0.0027618408203125
324.779,-0.09576416015625
324.789,-0.1912841796875
324.799,-0.264404296875
324.809,-0.299560546875
324.819,-0.297119140625
324.829,-0.261474609375
324.839,-0.1995849609375
324.849,-0.12890625
324.859,-0.071044921875
324.869,-0.036834716796875
324.879,-0.02667236328125
324.889,-0.031097412109375
324.899,-0.0286102294921875
324.909,-0.0059051513671875
324.919,0.02252197265625
324.924,-0.06610107421875
324.934,-0.08575439453125
324.944,-0.0980224609375
324.954,-0.1068115234375
324.964,-0.10260009765625
324.974,-0.0771484375
324.984,-0.030181884765625
324.994,0.038299560546875
325.004,0.11895751953125
325.014,0.1893310546875
325.024,0.23486328125
325.034,0.256103515625
325.044,0.2490234375
325.054,0.2008056640625
325.064,0.11407470703125
325.074,0.00734710693359375
325.083,-0.10638427734375
325.093,-0.217529296875
325.103,-0.305419921875
325.113,-0.348388671875
325.123,-0.336181640625
325.133,-0.2587890625
325.143,-0.1153564453125
325.153,0.05694580078125
325.163,0.1993408203125
325.173,0.278564453125
325.183,0.2900390625
325.193,0.2349853515625
325.203,0.128173828125
325.213,0.00542449951171875
325.223,-0.10125732421875
325.233,-0.1815185546875
325.243,-0.23388671875
325.253,-0.250244140625
325.263,-0.2255859375
325.273,-0.176513671875
325.28,-0.1292724609375
325.29,-0.09259033203125
325.3,-0.060455322265625
325.31,-0.0340576171875
325.32,-0.02398681640625
325.33,-0.038787841796875
325.34,-0.0787353515625
325.35,-0.1368408203125
325.36,-0.214599609375
325.37,-0.323974609375
325.38,-0.460693359375
325.39,-0.59423828125
325.4,-0.6904296875
325.41,-0.71630859375
325.42,-0.6416015625
325.43,-0.4619140625
325.44,-0.214111328125
325.45,0.050689697265625
325.46,0.295654296875
325.47,0.49951171875
325.479,0.6513671875
325.489,0.736328125
325.499,0.72314453125
325.509,0.5830078125
325.519,0.33251953125
325.529,0.04718017578125
325.539,-0.1864013671875
325.549,-0.323486328125
325.559,-0.3759765625
325.569,-0.3837890625
325.579,-0.366943359375
325.589,-0.322021484375
325.599,-0.26171875
325.609,-0.22216796875
325.619,-0.2344970703125
325.629,-0.29345703125
325.639,-0.3515625
325.649,-0.355712890625
325.659,-0.28955078125
325.669,-0.17333984375
325.673,0.055450439453125
325.683,-0.021148681640625
325.693,-0.08624267578125
325.703,-0.127197265625
325.713,-0.1324462890625
325.723,-0.0953369140625
325.733,-0.0159454345703125
325.743,0.09454345703125
325.753,0.2034912109375
325.763,0.26220703125
325.773,0.232421875
325.783,0.101806640625
325.793,-0.11663818359375
325.803,-0.388671875
325.813,-0.65869140625
325.823,-0.861328125
325.832,-0.95068359375
325.842,-0.931640625
325.852,-0.84912109375
325.862,-0.74072265625
325.872,-0.6162109375
325.882,-0.475830078125
325.892,-0.33349609375
325.902,-0.210205078125
325.912,-0.107666015625
325.922,-0.0110855102539062
325.932,0.07611083984375
325.942,0.12274169921875
325.952,0.1068115234375
325.962,0.0421142578125
325.972,-0.03759765625
325.982,-0.1060791015625
325.992,-0.160888671875
326.002,-0.2259521484375
326.012,-0.334716796875
326.022,-0.498291015625
326.03,-0.68310546875
326.04,-0.8193359375
326.05,-0.8466796875
326.06,-0.76220703125
326.07,-0.61279296875
326.08,-0.452880859375
326.09,-0.31298828125
326.1,-0.20166015625
326.11,-0.1185302734375
326.12,-0.055450439453125
326.13,0.00497055053710938
326.14,0.0709228515625
326.15,0.130615234375
326.16,0.1732177734375
326.17,0.196044921875
326.18,0.182373046875
326.19,0.09912109375
326.2,-0.06591796875
326.21,-0.27978515625
326.22,-0.48095703125
326.229,-0.61572265625
326.239,-0.65625
326.249,-0.59619140625
326.259,-0.448974609375
326.269,-0.25146484375
326.279,-0.052215576171875
326.289,0.112060546875
326.299,0.225341796875
326.309,0.28076171875
326.319,0.2734375
326.329,0.21337890625
326.339,0.1353759765625
326.349,0.06884765625
326.359,0.00789642333984375
326.369,-0.06500244140625
326.379,-0.146728515625
326.389,-0.225341796875
326.399,-0.298828125
326.409,-0.36376953125
326.419,-0.40478515625
326.423,-0.1478271484375
326.433,-0.0301055908203125
326.443,0.0941162109375
326.453,0.1905517578125
326.463,0.2313232421875
326.473,0.19677734375
326.483,0.081298828125
326.493,-0.101318359375
326.503,-0.32861328125
326.513,-0.57080078125
326.523,-0.78466796875
326.533,-0.9345703125
326.543,-1.0263671875
326.553,-1.0849609375
326.563,-1.1220703125
326.573,-1.1396484375
326.582,-1.14453125
326.592,-1.150390625
326.602,-1.1669921875
326.612,-1.1806640625
326.622,-1.16015625
326.632,-1.1025390625
326.642,-1.0498046875
326.652,-1.0439453125
326.662,-1.080078125
326.672,-1.11328125
326.682,-1.1240234375
326.692,-1.1240234375
326.702,-1.1337890625
326.712,-1.16796875
326.722,-1.2236328125
326.732,-1.2705078125
326.742,-1.2841796875
326.752,-1.26953125
326.762,-1.2431640625
326.772,-1.2041015625
326.78,-1.1416015625
326.79,-1.0595703125
326.8,-0.98583984375
326.81,-0.95263671875
326.82,-0.97900390625
326.83,-1.0576171875
326.84,-1.16015625
326.85,-1.2490234375
326.86,-1.2900390625
326.87,-1.2705078125
326.88,-1.1904296875
326.89,-1.06640625
326.9,-0.919921875
326.91,-0.77490234375
326.92,-0.65771484375
326.93,-0.595703125
326.94,-0.5966796875
326.95,-0.6455078125
326.96,-0.72412109375
326.97,-0.8154296875
326.979,-0.89501953125
326.989,-0.947265625
326.999,-0.97216796875
327.009,-0.97412109375
327.019,-0.95751953125
327.029,-0.93115234375
327.039,-0.90625
327.049,-0.8916015625
327.059,-0.90283203125
327.069,-0.95458984375
327.079,-1.04296875
327.089,-1.1416015625
327.099,-1.2236328125
327.109,-1.2705078125
327.119,-1.265625
327.129,-1.2099609375
327.139,-1.1279296875
327.149,-1.0478515625
327.159,-0.98681640625
327.169,-0.94580078125
327.173,-0.75732421875
327.183,-0.71533203125
327.193,-0.68603515625
327.203,-0.6689453125
327.213,-0.666015625
327.223,-0.68017578125
327.233,-0.71044921875
327.243,-0.7548828125
327.253,-0.80712890625
327.263,-0.85546875
327.273,-0.88720703125
327.283,-0.89306640625
327.293,-0.869140625
327.303,-0.8271484375
327.313,-0.78564453125
327.323,-0.75
327.331,-0.7216796875
327.341,-0.70556640625
327.351,-0.701171875
327.361,-0.70556640625
327.371,-0.72119140625
327.381,-0.7451171875
327.391,-0.76318359375
327.401,-0.76611328125
327.411,-0.755859375
327.421,-0.73681640625
327.431,-0.71484375
327.441,-0.7060546875
327.451,-0.72802734375
327.461,-0.78662109375
327.471,-0.86376953125
327.481,-0.9326171875
327.491,-0.9755859375
327.501,-0.98876953125
327.511,-0.97607421875
327.521,-0.9443359375
327.53,-0.9013671875
327.54,-0.8564453125
327.55,-0.82470703125
327.56,-0.82080078125
327.57,-0.845703125
327.58,-0.88037109375
327.59,-0.89990234375
327.6,-0.89111328125
327.61,-0.86376953125
327.62,-0.83203125
327.63,-0.7958984375
327.64,-0.74755859375
327.65,-0.6865234375
327.66,-0.62646484375
327.67,-0.5859375
327.68,-0.57080078125
327.69,-0.57470703125
327.7,-0.58642578125
327.71,-0.60791015625
327.72,-0.650390625
327.729,-0.7099609375
327.739,-0.75634765625
327.749,-0.75634765625
327.759,-0.7041015625
327.769,-0.6259765625
327.779,-0.55859375
327.789,-0.51953125
327.799,-0.5
327.809,-0.48486328125
327.819,-0.4677734375
327.829,-0.4541015625
327.839,-0.44775390625
327.849,-0.444580078125
327.859,-0.431884765625
327.869,-0.40234375
327.879,-0.368408203125
327.889,-0.355224609375
327.899,-0.376708984375
327.909,-0.420166015625
327.919,-0.455810546875
327.923,-0.468994140625
327.933,-0.517578125
327.943,-0.5595703125
327.953,-0.58349609375
327.963,-0.58544921875
327.973,-0.56884765625
327.983,-0.54345703125
327.993,-0.5166015625
328.003,-0.48681640625
328.013,-0.44677734375
328.023,-0.392822265625
328.033,-0.317626953125
328.043,-0.2132568359375
328.053,-0.10235595703125
328.063,-0.04736328125
328.073,-0.10162353515625
328.081,-0.2568359375
328.091,-0.440673828125
328.101,-0.5576171875
328.111,-0.54541015625
328.121,-0.41162109375
328.131,-0.22265625
328.141,-0.051666259765625
328.151,0.06988525390625
328.161,0.15478515625
328.171,0.2225341796875
328.181,0.26513671875
328.191,0.252197265625
328.201,0.171875
328.211,0.057891845703125
328.221,-0.033111572265625
328.231,-0.0682373046875
328.241,-0.06280517578125
328.251,-0.059326171875
328.261,-0.0831298828125
328.271,-0.11785888671875
328.28,-0.12371826171875
328.29,-0.08447265625
328.3,-0.0297393798828125
328.31,-0.00543212890625
328.32,-0.029205322265625
328.33,-0.08013916015625
328.34,-0.1263427734375
328.35,-0.156982421875
328.36,-0.1806640625
328.37,-0.1943359375
328.38,-0.1728515625
328.39,-0.09796142578125
328.4,0.0129928588867188
328.41,0.12139892578125
328.42,0.2008056640625
328.43,0.25048828125
328.44,0.279052734375
328.45,0.281494140625
328.46,0.244384765625
328.47,0.17041015625
328.479,0.0888671875
328.489,0.0262298583984375
328.499,-0.022369384765625
328.509,-0.08489990234375
328.519,-0.172607421875
328.529,-0.25927734375
328.539,-0.307373046875
328.549,-0.302001953125
328.559,-0.25732421875
328.569,-0.19873046875
328.579,-0.1478271484375
328.589,-0.11419677734375
328.599,-0.0863037109375
328.609,-0.045806884765625
328.619,0.00536727905273438
328.629,0.045684814453125
328.639,0.05670166015625
328.649,0.03839111328125
328.659,0.00696563720703125
328.669,-0.02142333984375
328.673,-0.2052001953125
328.683,-0.1976318359375
328.693,-0.17041015625
328.703,-0.1298828125
328.713,-0.07708740234375
328.723,-0.0194854736328125
328.733,0.03887939453125
328.743,0.101318359375
328.753,0.157470703125
328.763,0.179931640625
328.773,0.154052734375
328.783,0.09881591796875
328.793,0.04443359375
328.803,0.000142574310302734
328.813,-0.0462646484375
328.823,-0.10675048828125
328.831,-0.175048828125
328.841,-0.2327880859375
328.851,-0.26904296875
328.861,-0.28125
328.871,-0.261474609375
328.881,-0.20751953125
328.891,-0.130859375
328.901,-0.05096435546875
328.911,0.0177764892578125
328.921,0.06268310546875
328.931,0.066650390625
328.941,0.02545166015625
328.951,-0.03680419921875
328.961,-0.09002685546875
328.971,-0.1258544921875
328.981,-0.15087890625
328.991,-0.1611328125
329.001,-0.141845703125
329.011,-0.0997314453125
329.021,-0.0689697265625
329.03,-0.0711669921875
329.04,-0.094970703125
329.05,-0.12249755859375
329.06,-0.1527099609375
329.07,-0.1851806640625
329.08,-0.203369140625
329.09,-0.194091796875
329.1,-0.1685791015625
329.11,-0.14306640625
329.12,-0.1102294921875
329.13,-0.053741455078125
329.14,0.0166015625
329.15,0.066650390625
329.16,0.06622314453125
329.17,0.00669479370117188
329.18,-0.09954833984375
329.19,-0.2261962890625
329.2,-0.338134765625
329.21,-0.400390625
329.22,-0.39697265625
329.229,-0.336181640625
329.239,-0.231689453125
329.249,-0.0992431640625
329.259,0.03570556640625
329.269,0.14306640625
329.279,0.208740234375
329.289,0.2403564453125
329.299,0.243896484375
329.309,0.210693359375
329.319,0.1387939453125
329.329,0.049468994140625
329.339,-0.0298004150390625
329.349,-0.0853271484375
329.359,-0.1103515625
329.369,-0.0986328125
329.379,-0.054901123046875
329.389,0.00994873046875
329.399,0.08966064453125
329.409,0.1689453125
329.419,0.2196044921875
329.423,-0.00844573974609375
329.433,-0.058990478515625
329.443,-0.09716796875
329.453,-0.118408203125
329.463,-0.1256103515625
329.473,-0.12445068359375
329.483,-0.1123046875
329.493,-0.0880126953125
329.503,-0.059051513671875
329.513,-0.0330810546875
329.523,-0.0133743286132812
329.533,0.000479698181152344
329.543,0.009307861328125
329.553,0.00930023193359375
329.563,-0.00344276428222656
329.573,-0.024322509765625
329.581,-0.046173095703125
329.591,-0.06494140625
329.601,-0.07293701171875
329.611,-0.06341552734375
329.621,-0.0421142578125
329.631,-0.019287109375
329.641,0.00168704986572266
329.651,0.0200958251953125
329.661,0.032470703125
329.671,0.034637451171875
329.681,0.02545166015625
329.691,0.0121002197265625
329.701,0.00629425048828125
329.711,0.0108413696289062
329.721,0.0225982666015625
329.731,0.04205322265625
329.741,0.068603515625
329.751,0.09637451171875
329.761,0.1185302734375
329.771,0.132080078125
329.78,0.1407470703125
329.79,0.1458740234375
329.8,0.1407470703125
329.81,0.1192626953125
329.82,0.08087158203125
329.83,0.02777099609375
329.84,-0.03277587890625
329.85,-0.09112548828125
329.86,-0.138671875
329.87,-0.1695556640625
329.88,-0.1810302734375
329.89,-0.1719970703125
329.9,-0.14501953125
329.91,-0.1058349609375
329.92,-0.058990478515625
329.93,-0.01129150390625
329.94,0.0291595458984375
329.95,0.058135986328125
329.96,0.0731201171875
329.97,0.07391357421875
329.979,0.06451416015625
329.989,0.052490234375
329.999,0.044342041015625
330.009,0.04083251953125
330.019,0.040069580078125
330.029,0.03704833984375
330.039,0.023468017578125
330.049,-0.00333404541015625
330.059,-0.040130615234375
330.069,-0.08319091796875
330.079,-0.1268310546875
330.089,-0.1640625
330.099,-0.1898193359375
330.109,-0.200927734375
330.119,-0.1942138671875
330.129,-0.1685791015625
330.139,-0.12646484375
330.149,-0.07501220703125
330.159,-0.0218505859375
330.169,0.0259246826171875
330.173,0.0131454467773438
330.183,-0.0212249755859375
330.193,-0.055999755859375
330.203,-0.09075927734375
330.213,-0.12384033203125
330.223,-0.1529541015625
330.233,-0.1788330078125
330.243,-0.199951171875
330.253,-0.2091064453125
330.263,-0.202392578125
330.273,-0.185791015625
330.283,-0.1673583984375
330.293,-0.1475830078125
330.303,-0.12481689453125
330.313,-0.1041259765625
330.323,-0.08819580078125
330.331,-0.06915283203125
330.341,-0.04058837890625
330.351,-0.00619125366210938
330.361,0.0273590087890625
330.371,0.05859375
330.381,0.08642578125
330.391,0.10296630859375
330.401,0.10186767578125
330.411,0.08782958984375
330.421,0.06805419921875
330.431,0.04559326171875
330.441,0.0258636474609375
330.451,0.017852783203125
330.461,0.02325439453125
330.471,0.03497314453125
330.481,0.04425048828125
330.491,0.043182373046875
330.501,0.025726318359375
330.511,-0.00925445556640625
330.521,-0.05633544921875
330.53,-0.10345458984375
330.54,-0.1380615234375
330.55,-0.1546630859375
330.56,-0.15234375
330.57,-0.1312255859375
330.58,-0.09375
330.59,-0.044036865234375
330.6,0.0130386352539062
330.61,0.07049560546875
330.62,0.12237548828125
330.63,0.1627197265625
330.64,0.179443359375
330.65,0.1588134765625
330.66,0.09710693359375
330.67,0.004547119140625
330.68,-0.09698486328125
330.69,-0.187255859375
330.7,-0.258544921875
330.71,-0.312255859375
330.72,-0.344482421875
330.729,-0.346923828125
330.739,-0.31787109375
330.749,-0.263427734375
330.759,-0.1932373046875
330.769,-0.1220703125
330.779,-0.06365966796875
330.789,-0.0250244140625
330.799,-0.00593948364257812
330.809,-0.00225830078125
330.819,-0.0074920654296875
330.829,-0.0138320922851562
330.839,-0.017242431640625
330.849,-0.0189361572265625
330.859,-0.0215606689453125
330.869,-0.02606201171875
330.879,-0.0309600830078125
330.889,-0.03631591796875
330.899,-0.04669189453125
330.909,-0.06658935546875
330.919,-0.094970703125
330.924,-0.1064453125
330.934,-0.06744384765625
330.944,-0.03546142578125
330.954,-0.017791748046875
330.964,-0.0151290893554688
330.974,-0.0259246826171875
330.984,-0.04705810546875
330.994,-0.0731201171875
331.004,-0.0965576171875
331.014,-0.10809326171875
331.024,-0.10162353515625
331.034,-0.08038330078125
331.044,-0.054901123046875
331.054,-0.03448486328125
331.064,-0.0241241455078125
331.074,-0.0250701904296875
331.081,-0.03277587890625
331.091,-0.040740966796875
331.101,-0.04583740234375
331.111,-0.0447998046875
331.121,-0.03656005859375
331.131,-0.0270233154296875
331.141,-0.02252197265625
331.151,-0.022613525390625
331.161,-0.0242156982421875
331.171,-0.028350830078125
331.181,-0.039825439453125
331.191,-0.0595703125
331.201,-0.08050537109375
331.211,-0.0970458984375
331.221,-0.1121826171875
331.231,-0.1268310546875
331.241,-0.13232421875
331.251,-0.12371826171875
331.261,-0.11175537109375
331.271,-0.107421875
331.28,-0.107421875
331.29,-0.107666015625
331.3,-0.1112060546875
331.31,-0.1158447265625
331.32,-0.11376953125
331.33,-0.10028076171875
331.34,-0.07403564453125
331.35,-0.03460693359375
331.36,0.0150146484375
331.37,0.06768798828125
331.38,0.11138916015625
331.39,0.12322998046875
331.4,0.08111572265625
331.41,-0.00923919677734375
331.42,-0.114013671875
331.43,-0.19873046875
331.44,-0.25
331.45,-0.28125
331.46,-0.316162109375
331.47,-0.3603515625
331.475,-0.310546875
331.485,-0.2138671875
331.495,-0.07958984375
331.505,0.0716552734375
331.515,0.1929931640625
331.525,0.2489013671875
331.535,0.238525390625
331.545,0.1822509765625
331.555,0.1041259765625
331.565,0.0234375
331.575,-0.04681396484375
331.585,-0.10205078125
331.595,-0.1422119140625
331.605,-0.163818359375
331.615,-0.1663818359375
331.625,-0.15966796875
331.632,-0.1563720703125
331.642,-0.166015625
331.652,-0.190185546875
331.662,-0.21875
331.672,-0.2401123046875
331.682,-0.2459716796875
331.692,-0.23046875
331.702,-0.1966552734375
331.712,-0.158447265625
331.722,-0.1290283203125
331.732,-0.11669921875
331.742,-0.12359619140625
331.752,-0.1400146484375
331.762,-0.1513671875
331.772,-0.1507568359375
331.782,-0.1405029296875
331.792,-0.130126953125
331.802,-0.132568359375
331.812,-0.15185546875
331.822,-0.17724609375
331.831,-0.1983642578125
331.841,-0.2100830078125
331.851,-0.2080078125
331.861,-0.19091796875
331.871,-0.163330078125
331.881,-0.130615234375
331.891,-0.1025390625
331.901,-0.0943603515625
331.911,-0.11578369140625
331.921,-0.162353515625
331.931,-0.21728515625
331.941,-0.257568359375
331.951,-0.26708984375
331.961,-0.248779296875
331.971,-0.218505859375
331.981,-0.19287109375
331.991,-0.181884765625
332.001,-0.1826171875
332.011,-0.179443359375
332.021,-0.15478515625
332.03,-0.10162353515625
332.04,-0.023773193359375
332.05,0.06524658203125
332.06,0.1458740234375
332.07,0.1959228515625
332.08,0.1944580078125
332.09,0.1312255859375
332.1,0.0153121948242188
332.11,-0.1317138671875
332.12,-0.287353515625
332.13,-0.435302734375
332.14,-0.5673828125
332.15,-0.6767578125
332.16,-0.75
332.17,-0.76904296875
332.18,-0.72216796875
332.19,-0.615234375
332.2,-0.47509765625
332.21,-0.331298828125
332.22,-0.20703125
332.225,-0.046112060546875
332.235,-0.07073974609375
332.245,-0.11083984375
332.255,-0.1690673828125
332.265,-0.2491455078125
332.275,-0.351806640625
332.285,-0.472900390625
332.295,-0.60009765625
332.305,-0.7119140625
332.315,-0.7880859375
332.325,-0.81982421875
332.335,-0.80615234375
332.345,-0.7509765625
332.355,-0.6611328125
332.365,-0.53955078125
332.375,-0.392822265625
332.382,-0.23291015625
332.392,-0.078857421875
332.402,0.04638671875
332.412,0.1260986328125
332.422,0.1595458984375
332.432,0.155029296875
332.442,0.1195068359375
332.452,0.056549072265625
332.462,-0.0267791748046875
332.472,-0.11627197265625
332.482,-0.1934814453125
332.492,-0.2459716796875
332.502,-0.274658203125
332.512,-0.284912109375
332.522,-0.27880859375
332.532,-0.262451171875
332.542,-0.2474365234375
332.552,-0.251708984375
332.562,-0.318359375
332.572,-0.486083984375
332.581,-0.7119140625
332.591,-0.89208984375
332.601,-0.947265625
332.611,-0.83984375
332.621,-0.5703125
332.631,-0.20068359375
332.641,0.1751708984375
332.651,0.474853515625
332.661,0.64306640625
332.671,0.65478515625
332.681,0.52001953125
332.691,0.28125
332.701,-0.019134521484375
332.711,-0.339599609375
332.721,-0.6298828125
332.731,-0.84619140625
332.741,-0.9462890625
332.751,-0.9033203125
332.761,-0.75146484375
332.771,-0.572265625
332.78,-0.43212890625
332.79,-0.3583984375
332.8,-0.3349609375
332.81,-0.302001953125
332.82,-0.2022705078125
332.83,-0.03466796875
332.84,0.142333984375
332.85,0.25390625
332.86,0.24609375
332.87,0.1103515625
332.88,-0.11517333984375
332.89,-0.3837890625
332.9,-0.67138671875
332.91,-0.95751953125
332.92,-1.208984375
332.93,-1.3837890625
332.94,-1.443359375
332.95,-1.3798828125
332.96,-1.21875
332.97,-0.98779296875
332.975,0.10748291015625
332.985,0.10443115234375
332.995,0.095703125
333.005,0.11865234375
333.015,0.18896484375
333.025,0.297607421875
333.035,0.418212890625
333.045,0.51220703125
333.055,0.54443359375
333.065,0.499755859375
333.075,0.385009765625
333.085,0.2174072265625
333.095,0.0145645141601562
333.105,-0.1986083984375
333.115,-0.389404296875
333.125,-0.52880859375
333.132,-0.59912109375
333.142,-0.59033203125
333.152,-0.505859375
333.162,-0.36767578125
333.172,-0.2159423828125
333.182,-0.09832763671875
333.192,-0.048126220703125
333.202,-0.08001708984375
333.212,-0.189208984375
333.222,-0.34716796875
333.232,-0.5205078125
333.242,-0.689453125
333.252,-0.83349609375
333.262,-0.93212890625
333.272,-0.97412109375
333.282,-0.96875
333.292,-0.9287109375
333.302,-0.86181640625
333.312,-0.77490234375
333.322,-0.677734375
333.331,-0.59375
333.341,-0.55859375
333.351,-0.6015625
333.361,-0.72314453125
333.371,-0.89404296875
333.381,-1.0654296875
333.391,-1.189453125
333.401,-1.232421875
333.411,-1.1943359375
333.421,-1.0966796875
333.431,-0.9736328125
333.441,-0.84521484375
333.451,-0.7275390625
333.461,-0.64599609375
333.471,-0.62646484375
333.481,-0.67822265625
333.491,-0.79248046875
333.501,-0.9482421875
333.511,-1.107421875
333.521,-1.21875
333.53,-1.2509765625
333.54,-1.2001953125
333.55,-1.0849609375
333.56,-0.9306640625
333.57,-0.77587890625
333.58,-0.66552734375
333.59,-0.63037109375
333.6,-0.67822265625
333.61,-0.78857421875
333.62,-0.91650390625
333.63,-1.015625
333.64,-1.0634765625
333.65,-1.0654296875
333.66,-1.0400390625
333.67,-0.9970703125
333.68,-0.93798828125
333.69,-0.8671875
333.7,-0.7939453125
333.71,-0.73486328125
333.72,-0.69970703125
333.725,-0.78955078125
333.735,-0.8125
333.745,-0.82421875
333.755,-0.82275390625
333.765,-0.80908203125
333.775,-0.7880859375
333.785,-0.765625
333.795,-0.74365234375
333.805,-0.72509765625
333.815,-0.71533203125
333.825,-0.7197265625
333.835,-0.74072265625
333.845,-0.77587890625
333.855,-0.82080078125
333.865,-0.865234375
333.875,-0.8974609375
333.882,-0.90478515625
333.892,-0.88330078125
333.902,-0.84130859375
333.912,-0.79345703125
333.922,-0.75634765625
333.932,-0.73876953125
333.942,-0.74072265625
333.952,-0.75341796875
333.962,-0.7607421875
333.972,-0.7470703125
333.982,-0.71142578125
333.992,-0.6708984375
334.002,-0.64697265625
334.012,-0.650390625
334.022,-0.67041015625
334.032,-0.68408203125
334.042,-0.68212890625
334.052,-0.67822265625
334.062,-0.685546875
334.072,-0.6904296875
334.081,-0.67041015625
334.091,-0.62255859375
334.101,-0.56396484375
334.111,-0.51171875
334.121,-0.47607421875
334.131,-0.454833984375
334.141,-0.430908203125
334.151,-0.386962890625
334.161,-0.323974609375
334.171,-0.25244140625
334.181,-0.1796875
334.191,-0.1104736328125
334.201,-0.050994873046875
334.211,-0.0059661865234375
334.221,0.0195465087890625
334.231,0.0178375244140625
334.241,-0.0169525146484375
334.251,-0.0838623046875
334.261,-0.1763916015625
334.271,-0.282958984375
334.28,-0.38134765625
334.29,-0.442138671875
334.3,-0.447509765625
334.31,-0.398681640625
334.32,-0.31396484375
334.33,-0.2188720703125
334.34,-0.1268310546875
334.35,-0.035614013671875
334.36,0.057952880859375
334.37,0.1441650390625
334.38,0.202392578125
334.39,0.2208251953125
334.4,0.20458984375
334.41,0.1622314453125
334.42,0.10174560546875
334.43,0.036529541015625
334.44,-0.022796630859375
334.45,-0.08148193359375
334.46,-0.15380859375
334.47,-0.238525390625
334.475,-0.3720703125
334.485,-0.27880859375
334.495,-0.12353515625
334.505,0.06976318359375
334.515,0.255126953125
334.525,0.385986328125
334.535,0.435546875
334.545,0.406005859375
334.555,0.315185546875
334.565,0.184326171875
334.575,0.0362548828125
334.585,-0.10772705078125
334.595,-0.2386474609375
334.605,-0.358154296875
334.615,-0.463134765625
334.625,-0.5390625
334.632,-0.56689453125
334.642,-0.5283203125
334.652,-0.422119140625
334.662,-0.277587890625
334.672,-0.13134765625
334.682,-0.00431442260742188
334.692,0.089111328125
334.702,0.127197265625
334.712,0.08880615234375
334.722,-0.0225830078125
334.732,-0.176025390625
334.742,-0.337646484375
334.752,-0.474853515625
334.762,-0.55517578125
334.772,-0.5625
334.782,-0.50146484375
334.792,-0.386474609375
334.802,-0.2274169921875
334.812,-0.038482666015625
334.822,0.150146484375
334.831,0.296142578125
334.841,0.366943359375
334.851,0.354736328125
334.861,0.27001953125
334.871,0.1361083984375
334.881,-0.0177001953125
334.891,-0.1669921875
334.901,-0.29052734375
334.911,-0.36767578125
334.921,-0.396728515625
334.931,-0.3916015625
334.941,-0.359375
334.951,-0.302001953125
334.961,-0.224609375
334.971,-0.1292724609375
334.981,-0.0232391357421875
334.991,0.07659912109375
335.001,0.1572265625
335.011,0.2149658203125
335.021,0.2440185546875
335.03,0.240478515625
335.04,0.2161865234375
335.05,0.1854248046875
335.06,0.1507568359375
335.07,0.1082763671875
335.08,0.0548095703125
335.09,-0.00936126708984375
335.1,-0.07843017578125
335.11,-0.14599609375
335.12,-0.20654296875
335.13,-0.2548828125
335.14,-0.28662109375
335.15,-0.292236328125
335.16,-0.255859375
335.17,-0.1734619140625
335.18,-0.065185546875
335.19,0.034332275390625
335.2,0.09979248046875
335.21,0.126953125
335.22,0.1260986328125
335.225,-0.0614013671875
335.235,-0.125732421875
335.245,-0.181640625
335.255,-0.21630859375
335.265,-0.2122802734375
335.275,-0.1629638671875
335.285,-0.087158203125
335.295,-0.0094451904296875
335.305,0.0562744140625
335.315,0.103759765625
335.325,0.129638671875
335.335,0.12646484375
335.345,0.08905029296875
335.355,0.031768798828125
335.365,-0.0233001708984375
335.375,-0.0682373046875
335.382,-0.105712890625
335.392,-0.1400146484375
335.402,-0.1737060546875
