Time,GyroX
388.912,19.7000007629395
388.922,13.4400005340576
388.932,1.12000000476837
388.942,2.10000014305115
388.952,8.19000053405762
388.962,12.3900003433228
388.972,15.5000009536743
388.981,3.39000010490417
388.991,-2.76000022888184
389.001,-0.840000033378601
389.011,-0.560000002384186
389.021,10.9900007247925
389.031,1.19000005722046
389.041,-6.79000043869019
389.051,0.770000040531158
389.061,-2.90000009536743
389.071,1.36000001430511
389.081,9.66000080108643
389.091,-14.7000007629395
389.101,-8.07999992370605
389.111,6.72000026702881
389.121,6.23000049591064
389.131,-0.170000001788139
389.141,-14.3100004196167
389.151,-3.3600001335144
389.161,10.3900003433228
389.171,10.9500007629395
389.179,-0.280000001192093
389.189,1.64000010490417
389.199,2.13000011444092
389.209,11.8300008773804
389.219,17.7800006866455
389.229,12.1800003051758
389.239,24.6000003814697
389.249,3.92000007629395
389.259,12.8400001525879
389.269,20.7500019073486
389.279,6.54000043869019
389.289,1.22000002861023
389.299,-9.48000049591064
389.309,3.22000026702881
389.319,7.3100004196167
389.329,2.45000004768372
389.339,-13.8900003433228
389.349,-10.5700006484985
389.359,3.78000020980835
389.369,4.37000036239624
389.373,5.39000034332275
389.383,9.66000080108643
389.393,-10.6700000762939
389.403,13.1900005340576
389.413,27.8200016021729
389.423,3.71000027656555
389.433,4.58000040054321
389.443,-22.8900012969971
389.453,-28.0000019073486
389.463,-22.9900016784668
389.473,-41.6100006103516
389.483,-52.6000022888184
389.493,-39.2000007629395
389.503,-19.2800006866455
389.513,39.2000007629395
389.523,64.3300018310547
389.532,84.5200042724609
389.542,94.0400009155273
389.552,74.2000045776367
389.562,78.5700073242188
389.572,49.6300010681152
389.582,7.45000028610229
389.592,-14.8700008392334
389.602,-18.3400001525879
389.612,-21.6300010681152
389.622,-29.2200012207031
389.632,-29.0800018310547
389.642,-21.4500007629395
389.652,-9.59000015258789
389.662,-7.59000015258789
389.672,-7.49000024795532
389.682,-2.06000018119812
389.692,-0.0300000011920929
389.702,4.8600001335144
389.712,8.40000057220459
389.722,27.3000011444092
389.731,30.1700019836426
389.741,13.5400009155273
389.751,21.7000007629395
389.761,22.7100009918213
389.771,17.3200016021729
389.781,12.4900007247925
389.791,-18.230001449585
389.801,-22.6400012969971
389.811,-3.3600001335144
389.821,-0.450000017881393
389.831,13.1200008392334
389.841,8.92000007629395
389.851,33.3900032043457
389.861,28.2100009918213
389.871,34.8200035095215
389.881,45.6400032043457
389.891,40.7000007629395
389.901,37.2700004577637
389.911,45.810001373291
389.921,40.2800025939941
389.929,31.0100021362305
389.939,31.5700016021729
389.949,32.060001373291
389.959,26.4200019836426
389.969,50.7100028991699
389.979,24.5700016021729
389.989,36.2600021362305
389.999,44.1700019836426
390.009,33.1400032043457
390.019,34.2600021362305
390.029,23.8300018310547
390.039,29.7800006866455
390.049,22.5700016021729
390.059,50.2200012207031
390.069,61.0700035095215
390.079,48.2600021362305
390.089,68.4600067138672
390.099,54.4200019836426
390.109,49.2400016784668
390.119,34.4700012207031
390.123,-15.1200008392334
390.133,-37.4100036621094
390.143,-53.4800033569336
390.153,-52.430004119873
390.163,-72.1000061035156
390.173,-55.2300033569336
390.183,-58.5500030517578
390.193,-33.4200019836426
390.203,-9.94000053405762
390.213,23.2000007629395
390.223,54.4900016784668
390.233,73.5
390.243,68
390.253,44.4800033569336
390.263,19.4900016784668
390.273,5.70000028610229
390.282,-29.7100009918213
390.292,-52.6000022888184
390.302,-72.4100036621094
390.312,-47.2100028991699
390.322,-29.0100021362305
390.332,-0.730000019073486
390.342,36.120002746582
390.352,64.7800064086914
390.362,99.9200057983398
390.372,116.790008544922
390.382,126.42000579834
390.392,115.18000793457
390.402,92.890007019043
390.412,89.0700073242188
390.422,64.8899993896484
390.432,28.3800010681152
390.442,-13.8600006103516
390.452,-67.4400024414062
390.462,-61.1100044250488
390.472,-57.6100044250488
390.481,-69.6500015258789
390.491,-38.6700019836426
390.501,-11.7200002670288
390.511,14.4500007629395
390.521,65.1300048828125
390.531,90.6100006103516
390.541,136.150009155273
390.551,167.470001220703
390.561,178.320007324219
390.571,196.630004882812
390.581,160.09001159668
390.591,142.380004882812
390.601,108.92000579834
390.611,48.5400009155273
390.621,3.39000010490417
390.631,-48.0500030517578
390.641,-139.75
390.651,-147.730010986328
390.661,-154.210006713867
390.671,-204.120010375977
390.679,-169.920013427734
390.689,-154.770004272461
390.699,-110.280006408691
390.709,-43.0800018310547
390.719,-13.7500009536743
390.729,5.14000034332275
390.739,26.4900016784668
390.749,14.9400005340576
390.759,6.6100001335144
390.769,-24.3200016021729
390.779,-60.2300033569336
390.789,-78.2600021362305
390.799,-90.7500076293945
390.809,-104.440002441406
390.819,-95.370002746582
390.829,-104.26000213623
390.839,-84.1000061035156
390.849,-45.6000022888184
390.859,-33.1800003051758
390.869,-9.41000080108643
390.873,74.9300003051758
390.883,93.6900024414062
390.893,121.310005187988
390.903,144.34001159668
390.913,166.880004882812
390.923,191.59001159668
390.933,211.850006103516
390.943,224.350006103516
390.953,233.34001159668
390.963,234.880004882812
390.973,202.09001159668
390.983,158.020004272461
390.993,122.780006408691
391.003,69.7900009155273
391.013,-2.97000002861023
391.023,-54.810001373291
391.032,-99.4000015258789
391.042,-110.18000793457
391.052,-98.1000061035156
391.062,-49.5900039672852
391.072,15.7500009536743
391.082,55.7900009155273
391.092,79.9700012207031
391.102,84.140007019043
391.112,75.1100006103516
391.122,76.8600006103516
391.132,83.8200073242188
391.142,51.8300018310547
391.152,-27.7900009155273
391.162,-51.0300025939941
391.172,-37.9400024414062
391.182,-10.1800003051758
391.192,19.5300006866455
391.202,12.8400001525879
391.212,19.8800010681152
391.222,55.7900009155273
391.231,96.2500076293945
391.241,140.660003662109
391.251,130.830001831055
391.261,88.9300079345703
391.271,88.5500030517578
391.281,92.3600006103516
391.291,55.930004119873
391.301,1.78000009059906
391.311,-38.9500007629395
391.321,-50.0100021362305
391.331,-46.3400039672852
391.341,-47.6300010681152
391.351,-54.7400016784668
391.361,-54.1400032043457
391.371,-55.8200035095215
391.381,-87.8100051879883
391.391,-94.1100082397461
391.401,-89.1100006103516
391.411,-58.3800010681152
391.421,4.8600001335144
391.429,73.25
391.439,114.310005187988
391.449,134.010009765625
391.459,153.470001220703
391.469,161.730010986328
391.479,151.550003051758
391.489,121.270004272461
391.499,68.8100051879883
391.509,14.0300006866455
391.519,-12.3500003814697
391.529,13.8900003433228
391.539,19.6000003814697
391.549,39.2300033569336
391.559,73.8800048828125
391.569,89.0400009155273
391.579,88.8600006103516
391.589,67.1300048828125
391.599,10.460000038147
391.609,-38.1500015258789
391.619,-48.8900032043457
391.623,-41.3300018310547
391.633,-7.5600004196167
391.643,17.7800006866455
391.653,60.930004119873
391.663,80.7400054931641
391.673,84.5600051879883
391.683,92.1500015258789
391.693,53.4800033569336
391.703,38.1800003051758
391.713,33.8400001525879
391.723,-11.4100008010864
391.733,-35.7300033569336
391.743,-31.1500015258789
391.753,-22.6800003051758
391.763,17.1800003051758
391.773,61.7000045776367
391.782,111.440002441406
391.792,172.690002441406
391.802,237.190017700195
391.812,299.77001953125
391.822,342.610015869141
391.832,338.620025634766
391.842,306.110015869141
391.852,241.810012817383
391.862,127.150009155273
391.872,6.89000034332275
391.882,-132.650009155273
391.892,-271.600006103516
391.902,-314.650024414062
391.912,-334.350006103516
391.922,-305.720001220703
391.932,-173.630004882812
391.942,-87.8500061035156
391.952,-0.0300000011920929
391.962,41.120002746582
391.972,12.1100006103516
391.98,-0.450000017881393
391.99,36.9900016784668
392,43.7500038146973
392.01,-28.3500022888184
392.02,-113.820007324219
392.03,-130.020004272461
392.04,-98.1700057983398
392.05,-57.2900009155273
392.06,8.28999996185303
392.07,50.0500030517578
392.08,99.5000076293945
392.09,186.620010375977
392.1,238.660018920898
392.11,241.220016479492
392.12,194.740005493164
392.13,134.820007324219
392.14,103.810005187988
392.15,72.0300064086914
392.16,23.3400020599365
392.17,2.34000015258789
392.179,-9.6200008392334
392.189,-14.8000011444092
392.199,-13.7200002670288
392.209,-0.21000000834465
392.219,48.4400024414062
392.229,111.400001525879
392.239,122.01000213623
392.249,120.150009155273
392.259,94.6700057983398
392.269,49.1700019836426
392.279,-5.70000028610229
392.289,-102.580001831055
392.299,-208.600006103516
392.309,-252.490005493164
392.319,-264
392.329,-262.640014648438
392.339,-220.460006713867
392.349,-168.350006103516
392.359,-101.080001831055
392.369,-16.5200004577637
392.373,136.950012207031
392.383,133.450012207031
392.393,144.690002441406
392.403,165.34001159668
392.413,176.290008544922
392.423,190.150009155273
392.433,199.670013427734
392.443,174.440002441406
392.453,149.870010375977
392.463,102.130004882812
392.473,12.6300010681152
392.483,-58.7300033569336
392.493,-97.1600036621094
392.503,-96.0700073242188
392.513,-34.5800018310547
392.523,8.22000026702881
392.532,42.6300010681152
392.542,53.060001373291
392.552,30.480001449585
392.562,39.2700004577637
392.572,79.1000061035156
392.582,19.9100017547607
392.592,-77.1000061035156
392.602,-216.960006713867
392.612,-295.290008544922
392.622,-277.790008544922
392.632,-266.170013427734
392.642,-210.910003662109
392.652,-129.040008544922
392.662,-34.6100006103516
392.672,66.1100006103516
392.682,146.540008544922
392.692,217.450012207031
392.702,250.77001953125
392.712,248.18000793457
392.722,267.260009765625
392.73,250.810012817383
392.74,170.690002441406
392.75,105.590003967285
392.76,48.4700012207031
392.77,-31.8800010681152
392.78,-112.940002441406
392.79,-110.770004272461
392.8,-111.400001525879
392.81,-102.51000213623
392.82,-29.0100021362305
392.83,13.5400009155273
392.84,23.6600017547607
392.85,34.7200012207031
392.86,46.3000030517578
392.87,53.1300010681152
392.88,42.1700019836426
392.89,11.0600004196167
392.9,-17.7800006866455
392.91,-27.9600009918213
392.92,-11.1600008010864
392.929,-4.20000028610229
392.939,19.7400016784668
392.949,46.7200012207031
392.959,41.1900024414062
392.969,76.6800003051758
392.979,87.0400009155273
392.989,59.9200019836426
392.999,44.6900024414062
393.009,9.80000019073486
393.019,-36.6100006103516
393.029,-50.430004119873
393.039,-84.7300033569336
393.049,-130.440002441406
393.059,-142.690002441406
393.069,-129.150009155273
393.079,-113.080001831055
393.089,-64.3600006103516
393.099,-44.620002746582
393.109,1.47000002861023
393.119,48.8200035095215
393.123,125.510009765625
393.133,74.5800018310547
393.143,50.0800018310547
393.153,39.9000015258789
393.163,20.1200008392334
393.173,25.6900005340576
393.183,48.4700012207031
393.193,56.0300025939941
393.203,42.9100036621094
393.213,9.94000053405762
393.223,0.21000000834465
393.233,2.62000012397766
393.243,-1.64000010490417
393.253,-9.97000026702881
393.263,-70.7000045776367
393.273,-129.460006713867
393.282,-106.570007324219
393.292,-62.1600036621094
393.302,-81.5100021362305
393.312,-59.5700035095215
393.322,-21.8400001525879
393.332,-2.13000011444092
393.342,54.3500022888184
393.352,68.3500061035156
393.362,83.5800018310547
393.372,107.520004272461
393.382,98.9400024414062
393.392,45.2500038146973
393.402,-8.26000022888184
393.412,-11.5100002288818
393.422,18.7200012207031
393.432,12.5600004196167
393.442,-4.83000040054321
393.452,0.980000019073486
393.462,2.55000019073486
393.472,12.6300010681152
393.48,25.0900020599365
393.49,-15.4300003051758
393.5,-24.9900016784668
393.51,-31.2500019073486
393.52,-19.8400001525879
393.53,1.50000011920929
393.54,-18.5100002288818
393.55,-20.3000011444092
393.56,23.8300018310547
393.57,37.5900001525879
393.58,14.2100009918213
393.59,4.23000001907349
393.6,23.3800010681152
393.61,47.560001373291
393.62,28.9100017547607
393.63,26.8400020599365
393.64,22.1500015258789
393.65,-24.6000003814697
393.66,-15.1500005722046
393.67,16.310001373291
393.679,-2.87000012397766
393.689,-18.1300010681152
393.699,-17.1100006103516
393.709,-15.8500003814697
393.719,-11.3700008392334
393.729,-24.6400012969971
393.739,-13.2300004959106
393.749,21.7700004577637
393.759,11.0900001525879
393.769,7.10000038146973
393.779,11.1600008010864
393.789,2.27000021934509
393.799,17.1800003051758
393.809,17.4600009918213
393.819,-0.560000002384186
393.829,16.9700012207031
393.839,-26.1800003051758
393.849,9.48000049591064
393.859,31.5300006866455
393.869,11.1300001144409
393.873,0.0300000011920929
393.883,-14.8400011062622
393.893,14.0000009536743
393.903,0.310000002384186
393.913,24.9200019836426
393.923,-2.52000021934509
393.933,-1.6800000667572
393.943,39.9000015258789
393.953,9.73000049591064
393.963,20.0200004577637
393.973,18.8600006103516
393.983,-0.420000016689301
393.993,4.44000005722046
394.003,17.8800010681152
394.013,31.6400012969971
394.023,26.6000003814697
394.032,-8.47000026702881
394.042,-23.8700008392334
394.052,13.1200008392334
394.062,60.6500015258789
394.072,-2.48000001907349
394.082,-53.5100021362305
394.092,-31.3200016021729
394.102,32.8300018310547
394.112,19.8400001525879
394.122,21.0700016021729
394.132,-9.0600004196167
394.142,4.58000040054321
394.152,53.4100036621094
394.162,26.5300006866455
394.172,20.0500011444092
394.182,45.0800018310547
394.192,11.6900005340576
394.202,28.2800006866455
394.212,23.9400005340576
394.222,-4.72000026702881
394.23,11.7200002670288
394.24,5.63000011444092
394.25,17.7100009918213
394.26,26.3200016021729
394.27,-13.9300003051758
394.28,-42.2100028991699
394.29,-25.2700004577637
394.3,-14.5200004577637
394.31,32.370002746582
394.32,21.560001373291
394.33,3.92000007629395
394.34,56.3800010681152
394.35,55.8900032043457
394.36,39.2000007629395
394.37,35.7300033569336
394.38,41.5400009155273
394.39,37.0300025939941
394.4,6.51000022888184
394.41,0.450000017881393
394.42,7.3100004196167
394.429,-38.1800003051758
394.439,-21.0000019073486
394.449,-35.8400001525879
394.459,-24.4300003051758
394.469,-12.8800010681152
394.479,-19.8800010681152
394.489,-2.73000001907349
394.499,29.1900005340576
394.509,66.3600006103516
394.519,86.2000045776367
394.529,112.490005493164
394.539,103.600006103516
394.549,97.370002746582
394.559,66.3199996948242
394.569,9.3100004196167
394.579,-18.5800018310547
394.589,-62.7200012207031
394.599,-27.3300018310547
394.609,-11.9700002670288
394.619,0.940000057220459
394.623,-8.85000038146973
394.633,5.42000007629395
394.643,26.2100009918213
394.653,26.7700004577637
394.663,80.640007019043
394.673,89.7400054931641
394.683,135.480010986328
394.693,140.800003051758
394.703,127.850006103516
394.713,127.540008544922
394.723,106.050003051758
394.733,63.5200042724609
394.743,29.2900009155273
394.753,-34.1599998474121
394.763,-99.2200012207031
394.773,-84.5600051879883
394.782,-136.740005493164
394.792,-112.070007324219
394.802,-115.950004577637
394.812,-97.6100082397461
394.822,-49.4900016784668
394.832,-30.480001449585
394.842,-6.96000051498413
394.852,20.5100002288818
394.862,41.7200012207031
394.872,51.310001373291
394.882,47.6700019836426
394.892,43.7100028991699
394.902,59.5000038146973
394.912,49.5200004577637
394.922,46.8600006103516
394.932,73.8100051879883
394.942,67.3000030517578
394.952,84.5600051879883
394.962,85.2200012207031
394.972,47.4200019836426
394.98,36.5400009155273
394.99,11.7900009155273
395,-17.8500003814697
395.01,-21.7000007629395
395.02,-58.1000022888184
395.03,-39.8600006103516
395.04,-5
395.05,6.93000030517578
395.06,41.2600021362305
395.07,54.1400032043457
395.08,46.6500015258789
395.09,71.9200057983398
395.1,45.7100028991699
395.11,23.1000003814697
395.12,28.7000007629395
395.13,15.9600009918213
395.14,24.6400012969971
395.15,40.9100036621094
395.16,24.0400009155273
395.17,38.0400009155273
395.179,25.5800018310547
395.189,9.48000049591064
395.199,17.8500003814697
395.209,14.6300010681152
395.219,9.83000087738037
395.229,20.9600009918213
395.239,22.0100002288818
395.249,24.3600006103516
395.259,28.9100017547607
395.269,23.5900020599365
395.279,1.19000005722046
395.289,-16.1000003814697
395.299,4.69000005722046
395.309,18.9700012207031
395.319,27.1900005340576
395.329,41.2300033569336
395.339,47.9800033569336
395.349,75.4900054931641
395.359,110.600006103516
395.369,92.9600067138672
395.373,5.25000047683716
395.383,-18.060001373291
395.393,-17.25
395.403,7.45000028610229
395.413,20.8900012969971
395.423,29.6800022125244
395.433,39.5800018310547
395.443,52.6700019836426
395.453,67.0900039672852
395.463,70.3800048828125
395.473,73.390007019043
395.483,53.9700012207031
395.493,26.9100017547607
395.503,18.7600002288818
395.513,-3.01000022888184
395.523,-27.7200012207031
395.532,-33.6000022888184
395.542,-49.8400039672852
395.552,-63.7700042724609
395.562,-70.2800064086914
395.572,-85.0500030517578
395.582,-85.4700012207031
395.592,-72.620002746582
395.602,-66.6700057983398
395.612,-33.9099998474121
395.622,-5.60000038146973
395.632,3.04000020027161
395.642,26.2100009918213
395.652,59.6000022888184
395.662,68.6700057983398
395.672,81.1300048828125
395.682,78.5700073242188
395.692,55.0900039672852
395.702,38.7400016784668
395.712,13.8200006484985
395.722,12.2100009918213
395.73,10.2500009536743
395.74,-1.4300000667572
395.75,-10.4300003051758
395.76,21.4200000762939
395.77,52.6400032043457
395.78,74.5100021362305
395.79,115.640007019043
395.8,129.320007324219
395.81,127.190002441406
395.82,119.840003967285
395.83,75.4200057983398
395.84,65.0600051879883
395.85,50.6400032043457
395.86,3.3600001335144
395.87,3.46000027656555
395.88,4.37000036239624
395.89,18.2000007629395
395.9,42.8400001525879
395.91,33.0400009155273
395.92,29.5400009155273
395.929,26.2100009918213
395.939,27.4400005340576
395.949,27.1900005340576
395.959,1.96000003814697
395.969,-3.64000010490417
395.979,13.4000005722046
395.989,17.7100009918213
395.999,18.3000011444092
396.009,28.6600017547607
396.019,44.4800033569336
396.029,45.9200019836426
396.039,65.5500030517578
396.049,84.2100067138672
396.059,57.7800025939941
396.069,61.3500022888184
396.079,77.7700042724609
396.089,44.7600021362305
396.099,47.6300010681152
396.109,53.7900009155273
396.119,32.620002746582
396.123,96.7000045776367
396.133,105.490005493164
396.143,88.6900024414062
396.153,85.7800064086914
396.163,74.4100036621094
396.173,42.8400001525879
396.183,31.3600006103516
396.193,11.4400005340576
396.203,-40.560001373291
396.213,-62.0500030517578
396.223,-66.5699996948242
396.233,-77.9100036621094
396.243,-49.1400032043457
396.253,4.79000043869019
396.263,22.0500011444092
396.273,23.730001449585
396.281,32.5500030517578
396.291,24.9900016784668
396.301,16.9400005340576
396.311,16.2400016784668
396.321,-5.46000003814697
396.331,-58.4500045776367
396.341,-81.5100021362305
396.351,-83.0500030517578
396.361,-105.17000579834
396.371,-108.01000213623
396.381,-72.9000015258789
396.391,-37.9700012207031
396.401,-17.7800006866455
396.411,-7.3100004196167
396.421,-17.5
396.431,-35.4500007629395
396.441,-32.1300010681152
396.451,-34.4000015258789
396.461,-51.060001373291
396.471,-66.8100051879883
396.48,-64.5699996948242
396.49,-48.8600006103516
396.5,-29.2600021362305
396.51,-8.36000061035156
396.52,24.2900009155273
396.53,48.4700012207031
396.54,71.2600021362305
396.55,81.8600006103516
396.56,64.2900009155273
396.57,54.6700019836426
396.58,49.6600036621094
396.59,39.5500030517578
396.6,22.0500011444092
396.61,-3.81000018119812
396.62,-36.4300003051758
396.63,-70.3800048828125
396.64,-95.8600082397461
396.65,-109.580001831055
396.66,-112.100006103516
396.67,-93.2000045776367
396.679,-64.4000015258789
396.689,-24.0800018310547
396.699,8.32999992370605
396.709,44.4100036621094
396.719,91.3500061035156
396.729,150.43000793457
396.739,198.970016479492
396.749,234.390014648438
396.759,262.180023193359
396.769,274.640014648438
396.779,264.070007324219
396.789,230.790008544922
396.799,178.880004882812
396.809,121.240005493164
396.819,61.2100028991699
396.829,-19.4200000762939
396.839,-79.3100051879883
396.849,-129.670013427734
396.859,-150.640014648438
396.869,-164.850006103516
396.873,10.0400009155273
396.883,57.4000015258789
396.893,99.4000015258789
396.903,141.120010375977
396.913,174.300003051758
396.923,176.820007324219
396.933,158.720001220703
396.943,147.240005493164
396.953,133.139999389648
396.963,130.200012207031
396.973,116.720008850098
396.983,118.370002746582
396.993,138.950012207031
397.003,142.270004272461
397.013,127.080009460449
397.023,120.360008239746
397.031,104.020004272461
397.041,83.6100006103516
397.051,55.7200012207031
397.061,38.3200035095215
397.071,32.620002746582
397.081,27.4000015258789
397.091,29.1900005340576
397.101,49.5200004577637
397.111,67.9700012207031
397.121,92.1900024414062
397.131,129.600006103516
397.141,167.330001831055
397.151,209.610015869141
397.161,218.610015869141
397.171,201.84001159668
397.181,185.18000793457
397.191,162.43000793457
397.201,125.26000213623
397.211,69.0500030517578
397.221,27.1900005340576
397.23,9.90000057220459
397.24,-13.2600002288818
397.25,-26.8800010681152
397.26,-6.82000017166138
397.27,46.3400039672852
397.28,65.8000030517578
397.29,99.0800018310547
397.3,102.270004272461
397.31,117.770004272461
397.32,98.3500061035156
397.33,84.6300048828125
397.34,55.1900024414062
397.35,16.3800010681152
397.36,-21.8700008392334
397.37,-20.0900001525879
397.38,-36.4700012207031
397.39,-16.1300010681152
397.4,12.4900007247925
397.41,25.060001373291
397.42,21.7700004577637
397.429,-2.90000009536743
397.439,-46.4100036621094
397.449,-91.1700057983398
397.459,-148.540008544922
397.469,-193.900009155273
397.479,-249.580017089844
397.489,-285.390014648438
397.499,-265.330017089844
397.509,-205.100006103516
397.519,-145.420013427734
397.529,-85.8200073242188
397.539,-21.980001449585
397.549,50.1900024414062
397.559,109.51000213623
397.569,191.830001831055
397.579,237.330017089844
397.589,213.010009765625
397.599,166.18000793457
397.609,165.620010375977
397.619,134.290008544922
397.623,-27.8200016021729
397.633,-18.230001449585
397.643,-5.98000049591064
397.653,-14.1000003814697
397.663,9.13000011444092
397.673,7.91000032424927
397.683,-4.51000022888184
397.693,8.75
397.703,41.7900009155273
397.713,46.930004119873
397.723,62.8200035095215
397.733,70.4500045776367
397.743,112.490005493164
397.753,129.18000793457
397.763,128.620010375977
397.773,111.370002746582
397.781,114.200004577637
397.791,89.0400009155273
397.801,68.8800048828125
397.811,49.4200019836426
397.821,58.870002746582
397.831,56.4200019836426
397.841,54.1400032043457
397.851,48.0200004577637
397.861,46.1300010681152
397.871,37.870002746582
397.881,18.480001449585
397.891,-0.730000019073486
397.901,-8.36000061035156
397.911,5.39000034332275
397.921,13.3000001907349
397.931,22.4700012207031
397.941,12.7000007629395
397.951,-3.32000017166138
397.961,-25.3700008392334
397.971,-55.4700012207031
397.98,-102.51000213623
397.99,-118.540008544922
398,-118.790008544922
398.01,-111.51000213623
398.02,-81.5100021362305
398.03,-19.3200016021729
398.04,33.2800025939941
398.05,89.2100067138672
398.06,132.790008544922
398.07,152.670013427734
398.08,159.18000793457
398.09,162.540008544922
398.1,121.660003662109
398.11,56.6600036621094
398.12,-25.3000011444092
398.13,-89.3500061035156
398.14,-120.500007629395
398.15,-138.18000793457
398.16,-146.820007324219
398.17,-155.820007324219
398.179,-138.810012817383
398.189,-95.4800033569336
398.199,-22.7800006866455
398.209,43.0100021362305
398.219,84.0300064086914
398.229,102.200004577637
398.239,126.590003967285
398.249,148.75
398.259,154.490005493164
398.269,126.520004272461
398.279,112.520004272461
398.289,141.080001831055
398.299,178.220001220703
398.309,188.790008544922
398.319,173.140014648438
398.329,135.660003662109
398.339,120.290008544922
398.349,87.2500076293945
398.359,28.7700004577637
398.369,-49.1000022888184
398.373,-81.5100021362305
398.383,-53.2700042724609
398.393,-32.2700004577637
398.403,-8.82000064849854
398.413,-2.66000008583069
398.423,-18.3400001525879
398.433,-43.4700012207031
398.443,-70.9100036621094
398.453,-87.0100021362305
398.463,-92.3600006103516
398.473,-77.7700042724609
398.483,-50.680004119873
398.493,-13.5100002288818
398.503,23.8300018310547
398.513,41.8900032043457
398.523,62.9600028991699
398.531,68.390007019043
398.541,66.6399993896484
398.551,55.1900024414062
398.561,60.8300018310547
398.571,49.7300033569336
398.581,43.4700012207031
398.591,35.8000030517578
398.601,40.0400009155273
398.611,66.3199996948242
398.621,93.6900024414062
398.631,112.840003967285
398.641,115.67000579834
398.651,127.890007019043
398.661,137.370010375977
398.671,132.960006713867
398.681,119.030006408691
398.691,101.500007629395
398.701,79.5900039672852
398.711,69.1600036621094
398.721,32.7600021362305
398.73,4.0600004196167
398.74,-20.9600009918213
398.75,-56.5900039672852
398.76,-83.1900024414062
398.77,-89.9100036621094
398.78,-91.9100036621094
398.79,-100.550003051758
398.8,-89.1100006103516
398.81,-53.1300010681152
398.82,-12.9500007629395
398.83,14.8400011062622
398.84,38.7400016784668
398.85,67.2000045776367
398.86,82.6300048828125
398.87,75.0400009155273
398.88,64.2600021362305
398.89,63.8400039672852
398.9,38.0400009155273
398.91,0.730000019073486
398.92,-16.5200004577637
398.929,-4.69000005722046
398.939,-12.6700010299683
398.949,-23.480001449585
398.959,-12.3900003433228
398.969,14.2800006866455
398.979,23.3400020599365
398.989,29.6800022125244
398.999,54.7000007629395
399.009,72.8300018310547
399.019,82.9800033569336
399.029,74.9300003051758
399.039,73.7400054931641
399.049,47.7400016784668
399.059,17.9500007629395
399.069,5.70000028610229
399.079,12.6300010681152
399.089,4.76000022888184
399.099,-4.72000026702881
399.109,14.4200010299683
399.119,23.730001449585
399.123,69.9600067138672
399.133,72.2400054931641
399.143,69.3300018310547
399.153,44.7300033569336
399.163,20.4400005340576
399.173,16.310001373291
399.183,7.03000020980835
399.193,-8.07999992370605
399.203,-6.75000047683716
399.213,-10.8500003814697
399.223,-20.230001449585
399.233,-8.47000026702881
399.243,5.1100001335144
399.253,20.9600009918213
399.263,31.2500019073486
399.273,37.8300018310547
399.281,55.0500030517578
399.291,73.390007019043
399.301,76.7900009155273
399.311,73.1800003051758
399.321,66.2900009155273
399.331,45.3900032043457
399.341,26.3500003814697
399.351,13.0500001907349
399.361,1.47000002861023
399.371,-3.81000018119812
399.381,-4.83000040054321
399.391,3.74000024795532
399.401,11.2700004577637
399.411,8.96000003814697
399.421,11.7200002670288
399.431,25.7200012207031
399.441,35.5900001525879
399.451,37.1700019836426
399.461,31.810001373291
399.471,24.4600009918213
399.48,16.310001373291
399.49,-3.67000007629395
399.5,-23.1300010681152
399.51,-32.5800018310547
399.52,-44.5200004577637
399.53,-45.2200012207031
399.54,-26.0400009155273
399.55,-10.2500009536743
399.56,-12.5600004196167
399.57,-12.5300006866455
399.58,-8.07999992370605
399.59,-7.49000024795532
399.6,6.12000036239624
399.61,35.560001373291
399.62,59.7400016784668
399.63,86.2000045776367
399.64,132.260009765625
399.65,156.940002441406
399.66,122.18000793457
399.67,61.8400039672852
399.679,35.7700004577637
399.689,6.09000015258789
399.699,-52.6000022888184
399.709,-118.51000213623
399.719,-152.700012207031
399.729,-169.570007324219
399.739,-127.820007324219
399.749,-64.8199996948242
399.759,-26.6700019836426
399.769,26.3900012969971
399.779,95.1600036621094
399.789,135.060012817383
399.799,136.850006103516
399.809,112.800003051758
399.819,89.0400009155273
399.829,53.9000015258789
399.839,6.54000043869019
399.849,-21.560001373291
399.859,-49.870002746582
399.869,-74.6900024414062
399.873,-4.34000015258789
399.883,20.8600006103516
399.893,33.6000022888184
399.903,50.8200035095215
399.913,51.060001373291
399.923,40.8400001525879
399.933,48.3300018310547
399.943,61.6000022888184
399.953,54.5300025939941
399.963,39.8600006103516
399.973,26.1400012969971
399.983,-1.75000011920929
399.993,-31.1500015258789
400.003,-35.6300010681152
400.013,-35.2800025939941
400.023,-34.120002746582
400.031,0.350000023841858
400.041,41.2300033569336
400.051,62.4400024414062
400.061,72.1700057983398
400.071,80.1800003051758
400.081,63.4500045776367
400.091,33.3199996948242
400.101,18.7600002288818
400.111,-16.6599998474121
400.121,-57.0800018310547
400.131,-31.8500022888184
400.141,-16.1000003814697
400.151,-34.6100006103516
400.161,-20.6100006103516
400.171,10.5700006484985
400.181,4.01999998092651
400.191,-16.9000015258789
400.201,-12.1100006103516
400.211,-18.3400001525879
400.221,-25.1300010681152
400.23,-2.87000012397766
400.24,-9.38000011444092
400.25,-37.8000030517578
400.26,-0.630000054836273
400.27,24.8500003814697
400.28,0.660000026226044
400.29,21.2100009918213
400.3,21.980001449585
400.31,-18.3000011444092
400.32,5.8100004196167
400.33,16.1300010681152
400.34,-17.4300003051758
400.35,-6.33000040054321
400.36,10.1500005722046
400.37,-17.6700000762939
400.38,-24.4600009918213
400.39,-9.13000011444092
400.4,-22.6100006103516
400.41,-30.480001449585
400.42,-13.9300003051758
400.424,-18.3000011444092
400.434,-2.52000021934509
400.444,-1.96000003814697
400.454,-16.310001373291
400.464,-1.78000009059906
400.474,-2.83000016212463
400.484,-20.4700012207031
400.494,-17.3900012969971
400.504,-25.3000011444092
400.514,-54.7700042724609
400.524,-41.8200035095215
400.534,-17.9500007629395
400.544,-4.69000005722046
400.554,23.9000015258789
400.564,24.8500003814697
400.574,7.77000045776367
400.582,-2.20000004768372
400.592,-10.9900007247925
400.602,-33.8400001525879
400.612,-33.1800003051758
400.622,-22.9200019836426
400.632,-29.2200012207031
400.642,-10.1100006103516
400.652,33.6300010681152
400.662,59.3600044250488
400.672,72.6600036621094
400.682,78.6800003051758
400.692,62.5100021362305
400.702,42.870002746582
400.712,41.3300018310547
400.722,13.2600002288818
400.732,-0.730000019073486
400.742,5.18000030517578
400.752,-11.2000007629395
400.762,-19.2800006866455
400.772,-24.0400009155273
400.781,-45.2900009155273
400.791,-48.9600028991699
400.801,-40.6700019836426
400.811,-56.7700042724609
400.821,-49.8000030517578
400.831,-22.4700012207031
400.841,-1.99000012874603
400.851,24.6000003814697
400.861,42.310001373291
400.871,40.2100028991699
400.881,57.8200035095215
400.891,52.5700035095215
400.901,26.3900012969971
400.911,2.13000011444092
400.921,-31.6700019836426
400.931,-44.9000015258789
400.941,-33.4900016784668
400.951,-30.9400005340576
400.961,-35.3800010681152
400.971,-34.4400024414062
400.98,-36.2600021362305
400.99,-65.1700057983398
401,-99.9600067138672
401.01,-137.09001159668
401.02,-161.730010986328
401.03,-164.570007324219
401.04,-164.250015258789
401.05,-151.970001220703
401.06,-120.68000793457
401.07,-80.0100021362305
401.08,-42.0300025939941
401.09,-13.2300004959106
401.1,0.980000019073486
401.11,5.25000047683716
401.12,3.4300000667572
401.13,0.0700000002980232
401.14,-2.27000021934509
401.15,13.8900003433228
401.16,59.9900016784668
401.17,109.200004577637
401.174,61.3200035095215
401.184,-11.4100008010864
401.194,-83.3000030517578
401.204,-132.160003662109
401.214,-177.270004272461
401.224,-207.34001159668
401.234,-201.560012817383
401.244,-163.130004882812
401.254,-123.410003662109
401.264,-82.9800033569336
401.274,-30.3800010681152
401.284,15.4300003051758
401.294,44.4500007629395
401.304,67.7900009155273
401.314,80.5000076293945
401.324,99.9900054931641
401.332,125.610008239746
401.342,119.490005493164
401.352,93.2700042724609
401.362,72.620002746582
401.372,44.7300033569336
401.382,11.2000007629395
401.392,-31.1100006103516
401.402,-96.2800064086914
401.412,-153.720001220703
401.422,-175.84001159668
401.432,-203.940002441406
401.442,-248.570007324219
401.452,-268.309997558594
401.462,-261.27001953125
401.472,-258.160003662109
401.482,-241.290008544922
401.492,-188.160003662109
401.502,-142.760009765625
401.512,-122.360008239746
401.522,-61.7700042724609
401.531,-7.52000045776367
401.541,14.1000003814697
401.551,42.7300033569336
401.561,89.7400054931641
401.571,112.17000579834
401.581,109.690002441406
401.591,114.690002441406
401.601,114.380004882812
401.611,95.0200042724609
401.621,77.2800064086914
401.631,68.8800048828125
401.641,50.0800018310547
401.651,19.7000007629395
401.661,7.94000053405762
401.671,7.1700005531311
401.681,-15.6400003433228
401.691,-28.8400020599365
401.701,-15.4000005722046
401.711,-1.99000012874603
401.721,20.9300003051758
401.73,60.2000045776367
401.74,82.6000061035156
401.75,81.9000015258789
401.76,81.7900009155273
401.77,99.7500076293945
401.78,112.520004272461
401.79,108.01000213623
401.8,92.9900054931641
401.81,79.8300018310547
401.82,52.9900016784668
401.83,-6.33000040054321
401.84,-59.9200019836426
401.85,-95.0900039672852
401.86,-117.880004882812
401.87,-115.67000579834
401.88,-72.5900039672852
401.89,-28.4500007629395
401.9,24.2500019073486
401.91,111.820007324219
401.92,181.610015869141
401.924,219.660003662109
401.934,160.93000793457
401.944,78.9200057983398
401.954,-6.72000026702881
401.964,-76.9300003051758
401.974,-122.67000579834
401.984,-178.920013427734
401.994,-253.920013427734
402.004,-301.310028076172
402.014,-292.140014648438
402.024,-283.080017089844
402.034,-266.309997558594
402.044,-243.700012207031
402.054,-208.320007324219
402.064,-165.93000793457
402.074,-134.470001220703
402.082,-111.610008239746
402.092,-74.3400039672852
402.102,-47.810001373291
402.112,-34.6800003051758
402.122,-10.460000038147
402.132,38.25
402.142,69.890007019043
402.152,99.890007019043
402.162,141.780014038086
402.172,177.550003051758
402.182,175.520004272461
402.192,158.200012207031
402.202,119.030006408691
402.212,94.5000076293945
402.222,56.3500022888184
402.232,24.1100006103516
402.242,-4.23000001907349
402.252,-23.8000011444092
402.262,-52.3200035095215
402.272,-69.1600036621094
402.281,-44.5200004577637
402.291,3.78000020980835
402.301,42.0300025939941
402.311,81.9700012207031
402.321,131.040008544922
402.331,184.940002441406
402.341,244.09001159668
402.351,250.420013427734
402.361,224.560012817383
402.371,185.040008544922
402.381,129.320007324219
402.391,52.7400016784668
402.401,-13.0500001907349
402.411,-60.5800018310547
402.421,-95.0600051879883
402.431,-125.160003662109
402.441,-126.940002441406
402.451,-118.020004272461
402.461,-111.650001525879
402.471,-108.710006713867
402.48,-61.9800033569336
402.49,-30.4500007629395
402.5,-19.6000003814697
402.51,-22.6100006103516
402.52,-26.2500019073486
402.53,-25.5100021362305
402.54,-9.48000049591064
402.55,-14.9800004959106
402.56,-13.4400005340576
402.57,3.74000024795532
402.58,27.5100021362305
402.59,46.7600021362305
402.6,33.6300010681152
402.61,4.44000005722046
402.62,-21.3500003814697
402.63,-34.75
402.64,-42.1000022888184
402.65,-72.4500045776367
402.66,-123.650009155273
402.67,-162.150009155273
402.675,-202.300003051758
402.685,-189.770004272461
402.695,-205.830017089844
402.705,-222.000015258789
402.715,-227.460006713867
402.725,-207.93000793457
402.735,-175.700012207031
402.745,-140.350006103516
402.755,-107.76000213623
402.765,-82.8800048828125
402.775,-64.7100067138672
402.785,-41.8900032043457
402.795,-50.8200035095215
402.805,-89.2500076293945
402.815,-120.360008239746
402.825,-122.67000579834
402.832,-117.910003662109
402.842,-115.500007629395
402.852,-91.8000030517578
402.862,-29.3600006103516
402.872,35.4900016784668
402.882,99.9600067138672
402.892,157.110000610352
402.902,209.540008544922
402.912,238.000015258789
402.922,222.560012817383
402.932,209.160003662109
402.942,202.230010986328
402.952,172.130004882812
402.962,154.380004882812
402.972,154.310012817383
402.982,120.820007324219
402.992,68.6300048828125
403.002,68.25
403.012,75.1800003051758
403.022,56.0000038146973
403.031,41.8900032043457
403.041,36.2600021362305
403.051,28.9100017547607
403.061,37.1000022888184
403.071,57.7800025939941
403.081,62.2600021362305
403.091,37.9700012207031
403.101,11.5800008773804
403.111,0.0700000002980232
403.121,-8.99000072479248
403.131,-42.9800033569336
403.141,-65.3400039672852
403.151,-89.6300048828125
403.161,-97.1900024414062
403.171,-97.8600082397461
403.181,-80.390007019043
403.191,-59.3600044250488
403.201,-45.2500038146973
403.211,-39.370002746582
403.221,-32.3000030517578
403.23,-33.6000022888184
403.24,-21.4200000762939
403.25,30.5500011444092
403.26,100.100006103516
403.27,125.860008239746
403.28,93.5500030517578
403.29,41.4700012207031
403.3,-3.08000016212463
403.31,-54.8400039672852
403.32,-123.370002746582
403.33,-178.500015258789
403.34,-236.880004882812
403.35,-324.590026855469
403.36,-379.050018310547
403.37,-376.040008544922
403.38,-402.320007324219
403.39,-420.52001953125
403.4,-365.820007324219
403.41,-286.120025634766
403.42,-218.400009155273
403.424,235.690017700195
403.434,237.09001159668
403.444,221.620010375977
403.454,186.020004272461
403.464,158.160003662109
403.474,121.520004272461
403.484,78.7100067138672
403.494,72.1300048828125
403.504,109.270004272461
403.514,130.550003051758
403.524,125.820007324219
403.534,135.410003662109
403.544,153.190002441406
403.554,164.360000610352
403.564,154.980010986328
403.574,141.820007324219
403.582,94.6700057983398
403.592,30.8300018310547
403.602,-2.10000014305115
403.612,-27.7200012207031
403.622,-60.2700042724609
403.632,-90.120002746582
403.642,-71.5699996948242
403.652,-58.870002746582
403.662,-48.2300033569336
403.672,-22.2900009155273
403.682,-23.8700008392334
403.692,-28.9100017547607
403.702,-19.980001449585
403.712,-4.93000030517578
403.722,-14.2800006866455
403.732,-32.4800033569336
403.742,-40.1400032043457
403.752,-29.1500015258789
403.762,-7.80000019073486
403.772,-3.29000020027161
403.781,1.12000000476837
403.791,17.3900012969971
403.801,19.980001449585
403.811,24.9900016784668
403.821,22.2600002288818
403.831,-5.42000007629395
403.841,-17.4300003051758
403.851,-4.93000030517578
403.861,-7.98000049591064
403.871,-8.19000053405762
403.881,13.1600008010864
403.891,36.2600021362305
403.901,42.2800025939941
403.911,59.0100021362305
403.921,68.0400009155273
403.931,54.3200035095215
403.941,51.5500030517578
403.951,55.4700012207031
403.961,44.2700004577637
403.971,45.1500015258789
403.98,53.1600036621094
403.99,39.9700012207031
404,26.0400009155273
404.01,36.2900009155273
404.02,54.8800010681152
404.03,-49.1400032043457
404.04,-141.610000610352
404.05,-105.520004272461
404.06,-52.180004119873
404.07,-15.2200002670288
404.08,60.1600036621094
404.09,71.3300018310547
404.1,-10.5700006484985
404.11,-13.6800003051758
404.12,28.1700019836426
404.13,7.91000032424927
404.14,6.09000015258789
404.15,32.2300033569336
404.16,-5.42000007629395
404.17,-51.6900024414062
404.173,-12.5600004196167
404.183,35.7700004577637
404.193,89.7400054931641
404.203,115.01000213623
404.213,92.0100021362305
404.223,23.5200004577637
404.233,-27.6100006103516
404.243,-4.83000040054321
404.253,41.2300033569336
404.263,60.9700012207031
404.273,54.180004119873
404.283,11.3700008392334
404.293,-76.7200012207031
404.303,-147.210006713867
404.313,-141.190002441406
404.323,-136.920013427734
404.332,-212.030014038086
404.342,-144.580001831055
404.352,-77.0700073242188
404.362,-57.5400009155273
404.372,-29.8200016021729
404.382,-71.5
404.392,-121.520004272461
404.402,-50.3300018310547
404.412,44.4100036621094
404.422,98.4900054931641
404.432,90.2300033569336
404.442,63.1000022888184
404.452,15.8900003433228
404.462,26.0000019073486
404.472,92.7500076293945
404.482,38.3600006103516
404.492,-87.7400054931641
404.502,-46.9700012207031
404.512,93.7600021362305
404.522,124.42000579834
404.531,90.2600021362305
404.541,155.120010375977
404.551,246.470016479492
404.561,287.910003662109
404.571,318.040008544922
404.581,343.980010986328
404.591,354.760009765625
404.601,354.760009765625
404.611,345.380004882812
404.621,327.880004882812
404.631,274.120025634766
404.641,201.000015258789
404.651,127.220008850098
404.661,14.0000009536743
404.671,-74.0200042724609
404.681,-165.790008544922
404.691,-260.150024414062
404.701,-324.340026855469
404.711,-343.140014648438
404.721,-296.200012207031
404.729,-232.780014038086
404.739,-145.350006103516
404.749,-57.6100044250488
404.759,-6.47000026702881
404.769,38.5300025939941
404.779,78.0800018310547
404.789,68.6300048828125
404.799,64.3600006103516
404.809,53.8300018310547
404.819,35.7700004577637
404.829,14.8000011444092
404.839,-10.2200002670288
404.849,-29.0500011444092
404.859,-32.6900024414062
404.869,-33.3900032043457
404.879,-33.25
404.889,-28.4200019836426
404.899,-13.3000001907349
404.909,2.87000012397766
404.919,4.97000026702881
404.923,27.9600009918213
404.933,17.7800006866455
404.943,14.0300006866455
404.953,30.1000022888184
404.963,28.1400012969971
404.973,12.3500003814697
404.983,17.5700016021729
404.993,9.94000053405762
405.003,-7.03000020980835
405.013,-3.74000024795532
405.023,7.98000049591064
405.033,-1.36000001430511
405.043,15.6800003051758
405.053,25.6900005340576
405.063,21.8000011444092
405.073,32.370002746582
405.082,37.1000022888184
405.092,13.8900003433228
405.102,19.8800010681152
405.112,30.5900020599365
405.122,24.7400016784668
405.132,19.3200016021729
405.142,34.6100006103516
405.152,30.730001449585
405.162,25.5800018310547
405.172,36.75
405.182,37.7600021362305
405.192,16.9400005340576
405.202,10.7800006866455
405.212,7.10000038146973
405.222,-4.58000040054321
405.232,2.62000012397766
405.242,9.17000007629395
405.252,4.34000015258789
405.262,17.810001373291
405.272,33.1100006103516
405.281,23.8700008392334
405.291,27.7200012207031
405.301,42.9800033569336
405.311,26.2500019073486
405.321,8.78000068664551
405.331,7.87000036239624
405.341,-18.5100002288818
405.351,-32.0900001525879
405.361,-19.9500007629395
405.371,-38.25
405.381,-42.310001373291
405.391,-22.2900009155273
405.401,-23.1700019836426
405.411,-19.25
405.421,8.43000030517578
405.431,6.05000019073486
405.441,8.26000022888184
405.451,28.3500022888184
405.461,27.230001449585
405.471,18.3400001525879
405.479,23.060001373291
405.489,8.28999996185303
405.499,-7.66000032424927
405.509,2.52000021934509
405.519,-9.20000076293945
405.529,-22.1900005340576
405.539,-15.8500003814697
405.549,-16.8000011444092
405.559,-25.3000011444092
405.569,-7.91000032424927
405.579,-12.0700006484985
405.589,-11.3000001907349
405.599,5.63000011444092
405.609,1.64000010490417
405.619,-1.82000005245209
405.629,10.8500003814697
405.639,14.8700008392334
405.649,16.2400016784668
405.659,21.310001373291
405.669,9.66000080108643
405.673,-9.94000053405762
405.683,-19.3900012969971
405.693,-11.1300001144409
405.703,0.240000009536743
405.713,-10.0400009155273
405.723,-9.34000015258789
405.733,-0.310000002384186
405.743,-1.92000007629395
405.753,2.94000005722046
405.763,2.83000016212463
405.773,-1.50000011920929
405.783,4.30000019073486
405.793,-0.980000019073486
405.803,-15.1900005340576
405.813,-14.4200010299683
405.823,-17.5300006866455
405.832,-26.4200019836426
405.842,-21.8000011444092
405.852,-19.9100017547607
405.862,-20.1900005340576
405.872,-5.28000020980835
405.882,-1.6100001335144
405.892,3.15000009536743
405.902,13.4400005340576
405.912,6.93000030517578
405.922,9.0600004196167
405.932,12.8100004196167
405.942,-2.90000009536743
405.952,-12.7000007629395
405.962,-13.8200006484985
405.972,-16.3400001525879
405.982,-12.5300006866455
405.992,1.57000005245209
406.002,-2.31000018119812
406.012,2.45000004768372
406.022,7.4200005531311
406.031,3.53000020980835
406.041,1.08000004291534
406.051,1.29000008106232
406.061,7.77000045776367
406.071,28.5900020599365
406.081,40.6000022888184
406.091,38.9500007629395
406.101,54.2500038146973
406.111,44.5500030517578
406.121,24.8500003814697
406.131,25.2000007629395
406.141,14.9400005340576
406.151,-1.75000011920929
406.161,-2.94000005722046
406.171,-10.6700000762939
406.181,-19.5300006866455
406.191,-2.69000005722046
406.201,-7.66000032424927
406.211,-3.3600001335144
406.221,18.480001449585
406.229,14.6600008010864
406.239,18.6500015258789
406.249,33.6700019836426
406.259,26.1800003051758
406.269,18.4400005340576
406.279,25.7600021362305
406.289,20.3700008392334
406.299,14.3800010681152
406.309,28.560001373291
406.319,28.6300010681152
406.329,29.5400009155273
406.339,49.4500007629395
406.349,47.6000022888184
406.359,43.6800003051758
406.369,58.3400039672852
406.379,48.9600028991699
406.389,34.4700012207031
406.399,32.4800033569336
406.409,22.4700012207031
406.419,5.84000015258789
406.423,-15.3300008773804
406.433,-29.6800022125244
406.443,-31.6700019836426
406.453,-21.1000003814697
406.463,-26.810001373291
406.473,-26.7000007629395
406.483,-17.4300003051758
406.493,-32.9000015258789
406.503,-32.5100021362305
406.513,-14.4500007629395
406.523,-15.0800008773804
406.533,-43.6100006103516
406.543,-32.2300033569336
406.553,-14.0000009536743
406.563,-33.1100006103516
406.573,-33.0400009155273
406.582,-17.9200000762939
406.592,-44.620002746582
406.602,-56.3500022888184
406.612,-37.5200004577637
406.622,-44.5900039672852
406.632,-50.6400032043457
406.642,-32.2700004577637
406.652,-17.0100002288818
406.662,-32.9000015258789
406.672,-17.6000003814697
406.682,15.1900005340576
406.692,5.84000015258789
406.702,0.450000017881393
406.712,15.7800006866455
406.722,12.4900007247925
406.732,-6.8600001335144
406.742,-16.1000003814697
406.752,-24.2200012207031
406.762,-54.9800033569336
406.772,-76.5400009155273
406.781,-63.4200019836426
406.791,-65.3100051879883
406.801,-68.4600067138672
406.811,-29.4000015258789
406.821,-2.27000021934509
406.831,-3.50000023841858
406.841,9.94000053405762
406.851,20.9600009918213
406.861,8.68000030517578
406.871,-11.9300003051758
406.881,-10.1800003051758
406.891,-20.8200016021729
406.901,-38.9500007629395
406.911,-36.9600028991699
406.921,-31.9200019836426
406.931,-29.6100006103516
406.941,-20.8900012969971
406.951,5.21000003814697
406.961,16.4500007629395
406.971,-6.26000022888184
406.979,-5.95000028610229
406.989,-7.52000045776367
406.999,-29.3300018310547
407.009,-50.2200012207031
407.019,-50.1500015258789
407.029,-66.4600067138672
407.039,-84.4900054931641
407.049,-78.3300018310547
407.059,-67.7900009155273
407.069,-55.370002746582
407.079,-31.1800022125244
407.089,11.0200004577637
407.099,22.5000019073486
407.109,25.0900020599365
407.119,43.0800018310547
407.129,37.870002746582
407.139,15.8500003814697
407.149,-13.6500005722046
407.159,-27.0200004577637
407.169,-29.8900012969971
407.173,31.3900012969971
407.183,15.5400009155273
407.193,-12.3500003814697
407.203,-61.2800025939941
407.213,-121.940002441406
407.223,-153.960006713867
407.233,-211.050003051758
407.243,-260.990020751953
407.253,-260.680023193359
407.263,-226.520004272461
407.273,-173.770004272461
407.283,-110.040008544922
407.293,-34.6100006103516
407.303,44.060001373291
407.313,105.450004577637
407.323,145.530014038086
407.332,155.68000793457
407.342,147.700012207031
407.352,126.030006408691
407.362,105.17000579834
407.372,76.6500015258789
407.382,50.2200012207031
407.392,8.96000003814697
407.402,-2.97000002861023
407.412,2.55000019073486
407.422,-14.3100004196167
407.432,-28.5900020599365
407.442,-27.8200016021729
407.452,-29.5000019073486
407.462,-39.370002746582
407.472,-42.7000007629395
407.482,-42.8400001525879
407.492,-40.810001373291
407.502,-40.1400032043457
407.512,-47.6000022888184
407.522,-47.1400032043457
407.531,-54.2800025939941
407.541,-99.4300079345703
407.551,-157.220001220703
407.561,-175.800003051758
407.571,-200.550003051758
407.581,-223.260009765625
407.591,-229.84001159668
407.601,-198.900009155273
407.611,-158.580001831055
407.621,-100.690002441406
407.631,-52.0100021362305
407.641,-11.3700008392334
407.651,44.870002746582
407.661,67.7200012207031
407.671,55.0500030517578
407.681,39.4400024414062
407.691,27.1900005340576
407.701,3.4300000667572
407.711,-37.4500007629395
407.721,-72.8000030517578
407.729,-113.710006713867
407.739,-133.700012207031
407.749,-143.670013427734
407.759,-136.670013427734
407.769,-98.8400039672852
407.779,-69.1600036621094
407.789,-46.7600021362305
407.799,-22.5700016021729
407.809,4.58000040054321
407.819,7.66000032424927
407.829,11.6200008392334
407.839,13.8900003433228
407.849,30.2400016784668
407.859,45.3600006103516
407.869,46.5500030517578
407.879,44.5500030517578
407.889,42.1400032043457
407.899,34.3000030517578
407.909,3.78000020980835
407.919,-26.9500007629395
407.923,-125.090003967285
407.933,-128.240005493164
407.943,-98.0000076293945
407.953,-74.6500015258789
407.963,-80.1100006103516
407.973,-88.620002746582
407.983,-62.0900039672852
407.993,-38.3600006103516
408.003,-36.8900032043457
408.013,-43.9200019836426
408.023,-50.2900009155273
408.033,-42.310001373291
408.043,-43.6400032043457
408.053,-56.3800010681152
408.063,-79.7600021362305
408.073,-106.750007629395
408.082,-105.870002746582
408.092,-90.1600036621094
408.102,-70.5900039672852
408.112,-72.3800048828125
408.122,-76.6100006103516
408.132,-63.4900016784668
408.142,-40.3900032043457
408.152,-34.6800003051758
408.162,-34.120002746582
408.172,-45.2900009155273
408.182,-58.620002746582
408.192,-54.0700035095215
408.202,-54.1100044250488
408.212,-35.6300010681152
408.222,-21.2100009918213
408.232,7.00000047683716
408.242,58.1700019836426
408.252,132.790008544922
408.262,211.640014648438
408.272,274.960021972656
408.28,322.940002441406
408.29,365.920013427734
408.3,396.060028076172
408.31,402.320007324219
408.32,365.190002441406
408.33,321.120025634766
408.34,262.740020751953
408.35,228.230010986328
408.36,197.990005493164
408.37,133.380004882812
408.38,52.2500038146973
408.39,-8.15000057220459
408.4,-65.1300048828125
408.41,-118.820007324219
408.42,-127.500007629395
408.43,-106.470008850098
408.44,-93.9400024414062
408.45,-42.5900001525879
408.46,25.3400020599365
408.47,99.8500061035156
408.479,184.940002441406
408.489,238.870010375977
408.499,243.320007324219
408.509,215.740005493164
408.519,149.660003662109
408.529,85.2200012207031
408.539,-1.33000004291534
408.549,-93.9400024414062
408.559,-168.170013427734
408.569,-195.580001831055
408.579,-216.93000793457
408.589,-220.640014648438
408.599,-211.610015869141
408.609,-196.660003662109
408.619,-172.550003051758
408.629,-159.390014648438
408.639,-111.890007019043
408.649,-85.9200057983398
408.659,-100.550003051758
408.669,-79.4500045776367
408.673,-57.1500015258789
408.683,-45.1800003051758
408.693,4.37000036239624
408.703,40.3500022888184
408.713,46.1300010681152
408.723,85.3600006103516
408.733,83.890007019043
408.743,60.4400024414062
408.753,46.0200004577637
408.763,2.13000011444092
408.773,-50.430004119873
408.783,-99.4300079345703
408.793,-146.160003662109
408.803,-182.310012817383
408.813,-197.010009765625
408.823,-204.750015258789
408.832,-206.010009765625
408.842,-187.84001159668
408.852,-152.280014038086
408.862,-120.26000213623
408.872,-63.9400024414062
408.882,-1.29000008106232
408.892,47.9500007629395
408.902,93.0600051879883
408.912,124.070007324219
408.922,150.390014648438
408.932,167.860000610352
408.942,164.150009155273
408.952,126.42000579834
408.962,77.2800064086914
408.972,22.9900016784668
408.982,-37.1000022888184
408.992,-89.2100067138672
409.002,-141.050003051758
409.012,-167.650009155273
409.022,-166.740005493164
409.03,-150.040008544922
409.04,-143.920013427734
409.05,-132.120010375977
409.06,-94.1500015258789
409.07,-47.2800025939941
409.08,-2.87000012397766
409.09,25.9000015258789
409.1,37.8300018310547
409.11,72.5500030517578
409.12,112.140007019043
409.13,126.840003967285
409.14,121.550003051758
409.15,91.9400024414062
409.16,46.0200004577637
409.17,0.240000009536743
409.18,-50.430004119873
409.19,-114.340003967285
409.2,-161.450012207031
409.21,-182.490005493164
409.22,-171.530014038086
409.229,-125.370002746582
409.239,-77.3800048828125
409.249,-9.0600004196167
409.259,56.3500022888184
409.269,105.590003967285
409.279,150.290008544922
409.289,164.950012207031
409.299,156.900009155273
409.309,136.080001831055
409.319,102.720001220703
409.329,81.9300003051758
409.339,70.2100067138672
409.349,59.4600028991699
409.359,41.4400024414062
409.369,-2.13000011444092
409.379,-42.5900001525879
409.389,-65.1300048828125
409.399,-82.1800003051758
409.409,-103.18000793457
409.419,-123.860008239746
409.423,-73.0800018310547
409.433,-54.6300010681152
409.443,-16.9000015258789
409.453,4.55000019073486
409.463,-0.660000026226044
409.473,-19.6300010681152
409.483,-33.4600028991699
409.493,-24.7100009918213
409.503,-16.2700004577637
409.513,-16.6200008392334
409.523,-26.7700004577637
409.533,-25.8600006103516
409.543,-14.1000003814697
409.553,-13.5100002288818
409.563,-11.8300008773804
409.573,-20.1900005340576
409.582,-18.1600017547607
409.592,-4.0600004196167
409.602,3.1800000667572
409.612,-5.32000017166138
409.622,-21.4900016784668
409.632,-30.1700019836426
409.642,-49.2400016784668
409.652,-68.5300064086914
409.662,-97.890007019043
409.672,-122.990005493164
409.682,-130.620010375977
409.692,-130.93000793457
409.702,-127.400009155273
409.712,-115.040008544922
409.722,-92.7800064086914
409.732,-63.4900016784668
409.742,-37.6900024414062
409.752,-30.1300010681152
409.762,-18.9000015258789
409.772,-14.2800006866455
409.78,-18.7900009155273
409.79,-29.4700012207031
409.8,-27.4700012207031
409.81,-28.9400005340576
409.82,-27.6100006103516
409.83,-23.480001449585
409.84,-12.7000007629395
409.85,5.25000047683716
409.86,15.5700006484985
409.87,24.3600006103516
409.88,18.6200008392334
409.89,15.0800008773804
409.9,11.8300008773804
409.91,11.0200004577637
409.92,-0.700000047683716
409.93,-10.7400007247925
409.94,-13.2600002288818
409.95,-14.0300006866455
409.96,-26.4900016784668
409.97,-49.0300025939941
409.979,-51.9000015258789
409.989,-58.5200042724609
409.999,-58.0300025939941
410.009,-47.8800010681152
410.019,-20.0900001525879
410.029,5.74000024795532
410.039,39.3400001525879
410.049,65.2000045776367
410.059,97.0500030517578
410.069,123.650009155273
410.079,128.870010375977
410.089,116.410003662109
410.099,100.620002746582
410.109,90.120002746582
410.119,69.4400024414062
410.129,38.6400032043457
410.139,15.4700002670288
410.149,14.7700004577637
410.159,19.1100006103516
410.169,13.9600009918213
410.173,-42.1000022888184
410.183,-68.0699996948242
410.193,-90.2300033569336
410.203,-115.360008239746
410.213,-114.940002441406
410.223,-89.8400039672852
410.233,-71.120002746582
410.243,-46.2300033569336
410.253,-11.5100002288818
410.263,28.8400020599365
410.273,55.1600036621094
410.283,54.8400039672852
410.293,40.3500022888184
410.303,26.810001373291
410.313,-3.46000027656555
410.323,-46.7900009155273
410.332,-78.9200057983398
410.342,-96.140007019043
410.352,-103.560005187988
410.362,-97.7500076293945
410.372,-90.1900024414062
410.382,-54.560001373291
410.392,-28.560001373291
410.402,-2.20000004768372
410.412,33.9099998474121
410.422,72.8300018310547
410.432,77.3100051879883
410.442,78.5400009155273
410.452,89.2100067138672
410.462,97.2300033569336
410.472,81.5800018310547
410.482,57.680004119873
410.492,37.9400024414062
410.502,34.8600006103516
410.512,9.10000038146973
410.522,-42.870002746582
410.53,-70.4900054931641
410.54,-76.9300003051758
410.55,-83.3300018310547
410.56,-79.9700012207031
410.57,-50.5000038146973
410.58,-24.6700019836426
410.59,-9.94000053405762
410.6,25.230001449585
410.61,53.5500030517578
410.62,47.1100006103516
410.63,20.4400005340576
410.64,-3.32000017166138
410.65,-15.5700006484985
410.66,-17.9200000762939
410.67,-57.2600021362305
410.68,-79.6900024414062
410.69,-76.4700012207031
410.7,-75
410.71,-75.1800003051758
410.72,-58.8000030517578
410.729,-31.5700016021729
410.739,-5.25000047683716
410.749,16.8700008392334
410.759,42.2400016784668
410.769,55.8200035095215
410.779,64.2600021362305
410.789,68.2100067138672
410.799,74.0900039672852
410.809,61.810001373291
410.819,25.4400005340576
410.829,14.7000007629395
410.839,17.2900009155273
410.849,8.89000034332275
410.859,-7.80000019073486
410.869,-0.630000054836273
410.879,5.25000047683716
410.889,-3.04000020027161
410.899,-18.6900005340576
410.909,-14.2400007247925
410.919,-20.0900001525879
410.923,-21.1700000762939
410.933,2.80000019073486
410.943,24.3900012969971
410.953,0.840000033378601
410.963,-4.30000019073486
410.973,9.83000087738037
410.983,-2.66000008583069
410.993,-11.3000001907349
411.003,-1.96000003814697
411.013,12.1800003051758
411.023,7.24000024795532
411.033,5.1100001335144
411.043,26.1800003051758
411.053,28.5200004577637
411.063,28.8000011444092
411.073,36.9600028991699
411.082,44.3400039672852
411.092,48.1600036621094
411.102,43.0800018310547
411.112,53.6500015258789
411.122,60.9000015258789
411.132,48.3300018310547
411.142,56.2100028991699
411.152,65.7600021362305
411.162,46.0200004577637
411.172,28.7700004577637
411.182,38.5
411.192,36.75
411.202,15.4300003051758
411.212,-10.3900003433228
411.222,-33.3500022888184
411.232,-49.9100036621094
411.242,-54.3200035095215
411.252,-45.8500022888184
411.262,-37.5900001525879
411.272,-31.4600009918213
411.28,-11.0900001525879
411.29,7.21000051498413
411.3,12.2100009918213
411.31,16.1300010681152
411.32,29.0100021362305
411.33,36.8200035095215
411.34,26.8400020599365
411.35,24.3900012969971
411.36,29.1500015258789
411.37,29.1500015258789
411.38,27.9600009918213
411.39,17.1100006103516
411.4,-0.420000016689301
411.41,3.32000017166138
411.42,9.24000072479248
411.43,16.4099998474121
411.44,12.4600009918213
411.45,13.6100006103516
411.46,36.75
411.47,42.5900001525879
411.479,37.6900024414062
411.489,36.5
411.499,34.370002746582
411.509,47.2800025939941
411.519,60.4400024414062
411.529,51.4500007629395
411.539,24.7800006866455
411.549,15.7100009918213
411.559,17.2200012207031
411.569,4.01999998092651
411.579,-20.8600006103516
411.589,-13.2600002288818
411.599,-7.87000036239624
411.609,-4.69000005722046
411.619,6.05000019073486
411.629,23.9000015258789
411.639,52.6400032043457
411.649,70.5600051879883
411.659,97.370002746582
411.669,111.370002746582
411.673,-50.430004119873
411.683,-88.0900039672852
411.693,-104.300003051758
411.703,-94.4300079345703
411.713,-66.1100006103516
411.723,-34.7200012207031
411.733,-3.15000009536743
411.743,24.4300003051758
411.753,37.1000022888184
411.763,54.4200019836426
411.773,69.9600067138672
411.783,92.6100006103516
411.793,119.520004272461
411.803,152.350006103516
411.813,181.330001831055
411.823,187.740005493164
411.832,190.750015258789
411.842,180.630004882812
411.852,163.030014038086
411.862,152.670013427734
411.872,143.950012207031
411.882,124.560005187988
411.892,103.390007019043
411.902,69.7900009155273
411.912,21.1400012969971
411.922,-38.1100006103516
411.932,-67.5800018310547
411.942,-115.950004577637
411.952,-182.940002441406
411.962,-182.770004272461
411.972,-165.790008544922
411.982,-110.910003662109
411.992,-103.18000793457
412.002,-126.210006713867
412.012,-105.730003356934
412.022,-86.2000045776367
412.03,-78.7800064086914
412.04,-62.6500015258789
412.05,-31.4300022125244
412.06,13.3300008773804
412.07,66.1500015258789
412.08,66.8100051879883
412.09,37.4500007629395
412.1,37.9000015258789
412.11,81.2700042724609
412.12,132.889999389648
412.13,181.260009765625
412.14,198.830001831055
412.15,192.250015258789
412.16,199.150009155273
412.17,229.910003662109
412.18,210.490005493164
412.19,168.59001159668
412.2,102.690002441406
412.21,52.3600006103516
412.22,34.6100006103516
412.229,-36.1900024414062
412.239,-70.5900039672852
412.249,-63.4200019836426
412.259,-76.890007019043
412.269,13.1600008010864
412.279,97.6800079345703
412.289,141.220001220703
412.299,210.660003662109
412.309,216.230010986328
412.319,182.420013427734
412.329,165.130004882812
412.339,136.220001220703
412.349,82.2800064086914
412.359,58.7600021362305
412.369,53.5800018310547
412.379,40.3500022888184
412.389,34.1599998474121
412.399,47.9500007629395
412.409,59.180004119873
412.419,51.3800010681152
412.423,-57.680004119873
412.433,-103.490005493164
412.443,-109.76000213623
412.453,-134.75
412.463,-130.720001220703
412.473,-85.4300003051758
412.483,-34.6500015258789
412.493,17.7100009918213
412.503,81.0600051879883
412.513,136.880004882812
412.523,167.440002441406
412.533,157.880004882812
412.543,124.110008239746
412.553,78.9200057983398
412.563,28.7000007629395
412.573,-17.8500003814697
412.581,-54.3900032043457
412.591,-84.3100051879883
412.601,-60.0200042724609
412.611,7.98000049591064
412.621,64.6100006103516
412.631,102.200004577637
412.641,137.410003662109
412.651,141.920013427734
412.661,134.150009155273
412.671,122.01000213623
412.681,87.9900054931641
412.691,40.2800025939941
412.701,19.7000007629395
412.711,3.64000010490417
412.721,-9.34000015258789
412.731,-2.17000007629395
412.741,27.7200012207031
412.751,65.4100036621094
412.761,98.3500061035156
412.771,102.440002441406
412.78,109.160003662109
412.79,86.7300033569336
412.8,36.3600006103516
412.81,6.19000005722046
412.82,-44.2700004577637
412.83,-82.1100006103516
412.84,-91.4200057983398
412.85,-90.8600006103516
412.86,-72.6900024414062
412.87,-31.6700019836426
412.88,26.9100017547607
412.89,52.1500015258789
412.9,62.7900047302246
412.91,71.890007019043
412.92,55.0500030517578
412.93,41.6800003051758
412.94,42.6300010681152
412.95,37.4800033569336
412.96,32.6500015258789
412.97,29.5000019073486
412.979,25.7600021362305
412.989,62.7900047302246
412.999,80.2900009155273
413.009,70.140007019043
413.019,65.870002746582
413.029,65.4100036621094
413.039,39.620002746582
413.049,15.0500011444092
413.059,9.3100004196167
413.069,-5.14000034332275
413.079,-31.3200016021729
413.089,-26.9500007629395
413.099,-33.7400016784668
413.109,-62.8600044250488
413.119,-53.620002746582
413.129,-64.5400009155273
413.139,-99.4700012207031
413.149,-117.42000579834
413.159,-109.370002746582
413.169,-107.830001831055
413.173,-52.7100028991699
413.183,-56.7700042724609
413.193,-77.7300033569336
413.203,-108.150001525879
413.213,-133.660003662109
413.223,-130.230010986328
413.233,-154.380004882812
413.243,-141.889999389648
413.253,-101.640007019043
413.263,-22.5000019073486
413.273,37.8000030517578
413.283,71.5699996948242
413.293,106.820007324219
413.303,136.950012207031
413.313,144.160003662109
413.323,141.68000793457
413.331,110.530006408691
413.341,62.7900047302246
413.351,35.4200019836426
413.361,40.9500007629395
413.371,34.370002746582
413.381,30.1700019836426
413.391,38.9500007629395
413.401,45.8500022888184
413.411,62.0500030517578
413.421,72.7600021362305
413.431,77.3500061035156
413.441,59.810001373291
413.451,16.6900005340576
413.461,-12.3200006484985
413.471,-16.6900005340576
413.481,-3.15000009536743
413.491,26.1400012969971
413.501,79.0600051879883
413.511,131.560012817383
413.521,143.220001220703
413.53,147.139999389648
413.54,140.280014038086
413.55,132.230010986328
413.56,99.640007019043
413.57,42.7700004577637
413.58,-49.7000007629395
413.59,-142.520004272461
413.6,-152.18000793457
413.61,-144.160003662109
413.62,-111.720008850098
413.63,-60.6900024414062
413.64,-16.5900001525879
413.65,43.120002746582
413.66,111.330001831055
413.67,147.380004882812
413.68,150.710006713867
413.69,152.810012817383
413.7,145.670013427734
413.71,139.400009155273
413.72,114.940002441406
413.729,104.050003051758
413.739,126.140007019043
413.749,148.010009765625
413.759,141.150009155273
413.769,122.570007324219
413.779,81.0900039672852
413.789,0.170000001788139
413.799,-58.6900024414062
413.809,-96.7700042724609
413.819,-117.460006713867
413.829,-127.360008239746
413.839,-108.710006713867
413.849,-65.5500030517578
413.859,-21.8000011444092
413.869,45.0100021362305
413.879,94.7800064086914
413.889,98.870002746582
413.899,118.330001831055
413.909,163.240005493164
413.919,134.850006103516
413.923,27.1200008392334
413.933,47.3500022888184
413.943,34.4000015258789
413.953,28.5900020599365
413.963,26.1400012969971
413.973,-11.0600004196167
413.983,-66.7400054931641
413.993,-132.889999389648
414.003,-218.260009765625
414.013,-258.300018310547
414.023,-270.650024414062
414.033,-291.580017089844
414.043,-266.380004882812
414.053,-209.610015869141
414.063,-122.01000213623
414.073,-13.0200004577637
414.081,68.8100051879883
414.091,126.520004272461
414.101,194.530014038086
414.111,278.279998779297
414.121,333.860015869141
414.131,357.310028076172
414.141,348.880004882812
414.151,330.360015869141
414.161,327.77001953125
414.171,301.980010986328
414.181,228.34001159668
414.191,137.900009155273
414.201,18.0200004577637
414.211,-102.93000793457
414.221,-172.060012817383
414.231,-254.310012817383
414.241,-332.710021972656
414.251,-332.360015869141
414.261,-265.370025634766
414.271,-175.560012817383
414.28,-68.7000045776367
414.29,-7.73000049591064
414.3,-38.9900016784668
414.31,-46.8600006103516
414.32,2.20000004768372
414.33,51.6900024414062
414.34,87.7100067138672
414.35,117.770004272461
414.36,99.3300018310547
414.37,48.5400009155273
414.38,10.0400009155273
414.39,-35.1400032043457
414.4,-110.910003662109
414.41,-147.350006103516
414.42,-140.84001159668
414.43,-151.020004272461
414.44,-108.640007019043
414.45,-42.7700004577637
414.46,42.7700004577637
414.47,120.050003051758
414.479,183.540008544922
414.489,248.530014038086
414.499,289.940002441406
414.509,306.670013427734
414.519,333.550018310547
414.529,343.77001953125
414.539,310.730010986328
414.549,259.070007324219
414.559,214.020004272461
414.569,148.150009155273
414.579,92.6800079345703
414.589,49.3500022888184
414.599,-0.630000054836273
414.609,-60.4400024414062
414.619,-74.6900024414062
414.629,-83.1600036621094
414.639,-109.860008239746
414.649,-124.350006103516
414.659,-110.810005187988
414.669,-100.480003356934
414.673,-29.5000019073486
414.683,-15.5400009155273
414.693,-38.5700035095215
414.703,-43.4300003051758
414.713,-35.560001373291
414.723,-48.6100006103516
414.733,-51.1000022888184
414.743,-32.060001373291
414.753,-8.75
414.763,17.5300006866455
414.773,61.7700042724609
414.783,100.970001220703
414.793,120.01000213623
414.803,145.670013427734
414.813,167.09001159668
414.823,145.320007324219
414.831,112.030006408691
414.841,78.120002746582
414.851,36.9600028991699
414.861,-4.23000001907349
414.871,-52.3600006103516
414.881,-118.860008239746
414.891,-191.170013427734
414.901,-236.670013427734
414.911,-253.260009765625
414.921,-216.720016479492
414.931,-139.050003051758
414.941,-35.870002746582
414.951,66.8800048828125
414.961,162.640014648438
414.971,228.580017089844
414.981,242.690017700195
414.991,246.750015258789
415.001,230.790008544922
415.011,174.540008544922
415.021,107.130004882812
415.03,51.2400016784668
415.04,18.3400001525879
415.05,-14.9800004959106
415.06,-40.4200019836426
415.07,-59.5300025939941
415.08,-54.9800033569336
415.09,-20.8600006103516
415.1,33.6300010681152
415.11,53.5100021362305
415.12,69.5100021362305
415.13,76.0500030517578
415.14,87.5700073242188
415.15,86.5500030517578
415.16,54.3200035095215
415.17,-18.8600006103516
415.18,-52.4600028991699
415.19,-78.9600067138672
415.2,-68.9500045776367
415.21,2.69000005722046
415.22,65.1700057983398
415.229,124.42000579834
415.239,196.420013427734
415.249,198.620010375977
415.259,177.270004272461
415.269,169.640014648438
415.279,119.800003051758
415.289,32.2700004577637
415.299,-9.8700008392334
415.309,-51.2700042724609
415.319,-117.320007324219
415.329,-144.440002441406
415.339,-155.220001220703
415.349,-168.940002441406
415.359,-148.75
415.369,-87.2900009155273
415.379,-59.3600044250488
415.389,-28.8700008392334
415.399,62.4400024414062
415.409,114.940002441406
415.419,119.380004882812
415.423,208.110015869141
415.433,95.4400024414062
415.443,14.8700008392334
415.453,-27.2600021362305
415.463,-75.5300064086914
415.473,-114.130004882812
415.483,-99.2200012207031
415.493,-138.600006103516
415.503,-205.060012817383
415.513,-196.350006103516
415.523,-187.910003662109
415.533,-177.59001159668
415.543,-181.160003662109
415.553,-178.710006713867
415.563,-152.770004272461
415.573,-96.6700057983398
415.581,-135.550003051758
415.591,-171.390014648438
415.601,-109.550003051758
415.611,-48.7200012207031
415.621,14.9800004959106
415.631,81.0900039672852
415.641,135.870010375977
415.651,190.570007324219
415.661,268.309997558594
415.671,303.730010986328
415.681,298.440002441406
415.691,236.490005493164
415.701,171.880004882812
415.711,104.860008239746
415.721,52.6000022888184
415.731,-67.0900039672852
415.741,-203.210006713867
415.751,-231.980010986328
415.761,-202.510009765625
415.771,-188.370010375977
415.78,-155.990005493164
415.79,-131.389999389648
415.8,-119.980003356934
415.81,-63.9400024414062
415.82,-23.2400016784668
415.83,-7.45000028610229
415.84,26.1800003051758
415.85,49.6300010681152
415.86,73.3600006103516
415.87,89.9800033569336
415.88,50.120002746582
415.89,25.9300003051758
415.9,63.0700035095215
415.91,66.8800048828125
415.92,46.5100021362305
415.93,38.7100028991699
415.94,27.7500019073486
415.95,30.0300006866455
415.96,32.0200004577637
415.97,17.1500015258789
415.979,-2.10000014305115
415.989,5.32000017166138
415.999,17.1100006103516
416.009,19.6000003814697
416.019,28.1000003814697
416.029,21.6300010681152
416.039,33.1800003051758
416.049,56.5900039672852
416.059,54.4900016784668
416.069,46.2700004577637
416.079,43.7500038146973
416.089,44.1000022888184
416.099,36.2600021362305
416.109,40.1800003051758
416.119,42.0000038146973
416.129,42.1000022888184
416.139,43.2600021362305
416.149,48.0200004577637
416.159,54.6700019836426
416.169,70.0699996948242
416.173,2.31000018119812
416.183,-4.41000032424927
416.193,-16.9400005340576
416.203,-24.0800018310547
416.213,-16.8299999237061
416.223,-7.70000028610229
416.233,8.19000053405762
416.243,26.9500007629395
416.253,35.6599998474121
416.263,48.120002746582
416.273,55.2600021362305
416.283,51.2400016784668
416.293,53.060001373291
416.303,29.0500011444092
416.313,11.0600004196167
416.323,10.0400009155273
416.331,-32.5500030517578
416.341,-76.7200012207031
416.351,-97.1600036621094
416.361,-142.970001220703
416.371,-162.400009155273
416.381,-155.570007324219
416.391,-168.380004882812
416.401,-149.060012817383
416.411,-119.070007324219
416.421,-94.2500076293945
416.431,-29.8500022888184
416.441,29.7800006866455
416.451,81.3400039672852
416.461,130.34001159668
416.471,138.84001159668
416.481,137.93000793457
416.491,127.610008239746
416.501,96.3500061035156
416.511,46.7600021362305
416.521,9.17000007629395
416.53,-27.7200012207031
416.54,-49.1700019836426
416.55,-34.5800018310547
416.56,-17.4600009918213
416.57,11.2700004577637
416.58,41.7900009155273
416.59,71.0800018310547
416.6,89.6700057983398
416.61,89.9800033569336
416.62,76.1900024414062
416.63,70.1700057983398
416.64,43.0500030517578
416.65,8.89000034332275
416.66,-16.4500007629395
416.67,-59.2200012207031
416.68,-108.110008239746
416.69,-138.600006103516
416.7,-181.120010375977
416.71,-207.650009155273
416.72,-187.950012207031
416.729,-175.240005493164
416.739,-152.950012207031
416.749,-123.550003051758
416.759,-141.850006103516
416.769,-165.690002441406
416.779,-159.670013427734
416.789,-180.740005493164
416.799,-192.500015258789
416.809,-187.280014038086
416.819,-196.280014038086
416.829,-199.460006713867
416.839,-175.520004272461
416.849,-189.350006103516
416.859,-207.900009155273
416.869,-216.580017089844
416.879,-207.93000793457
416.889,-217.240005493164
416.899,-200.230010986328
416.909,-134.43000793457
416.919,-69.4000015258789
416.922,-58.1700019836426
416.932,-74.2300033569336
416.942,-103.000007629395
416.952,-117.040008544922
416.962,-90.120002746582
416.972,-67.1300048828125
416.982,-36.2900009155273
416.992,31.3600006103516
417.002,97.0900039672852
417.012,128.170013427734
417.022,184.830001831055
417.032,261.900024414062
417.042,312.620025634766
417.052,331.550018310547
417.062,349.820007324219
417.072,334.350006103516
417.081,266.980010986328
417.091,185.640014648438
417.101,99.8200073242188
417.111,-17.810001373291
417.121,-135.130004882812
417.131,-229.490005493164
417.141,-311.25
417.151,-383.950012207031
417.161,-385.730010986328
417.171,-322.940002441406
417.181,-225.400009155273
417.191,-171.670013427734
417.201,-79.5500030517578
417.211,18.2000007629395
417.221,102.790008544922
417.231,197.150009155273
417.241,291.160003662109
417.251,359.030029296875
417.261,398.400024414062
417.271,421.780029296875
417.28,438.200012207031
417.29,422.690032958984
417.3,433.680023193359
417.31,477.820037841797
417.32,507.390014648438
417.33,496.470031738281
417.34,445.760009765625
417.35,405.470031738281
417.36,373.550018310547
417.37,323.540008544922
417.38,254.27001953125
417.39,183.330001831055
417.4,83.5800018310547
417.41,-36.8500022888184
417.42,-133.730010986328
417.43,-217.940017700195
417.44,-300.050018310547
417.45,-372.120025634766
417.46,-441.240020751953
417.47,-479.110015869141
417.474,80.3600006103516
417.484,265.510009765625
417.494,383.350006103516
417.504,419.260009765625
417.514,406.800018310547
417.524,371.210021972656
417.534,317.900024414062
417.544,263.230010986328
417.554,174.400009155273
417.564,38.25
417.574,-98.1700057983398
417.584,-237.330017089844
417.594,-350.800018310547
417.604,-440.790008544922
417.614,-500.780029296875
417.624,-506.380035400391
417.632,-426.860015869141
417.642,-251.540008544922
417.652,-15.6800003051758
417.662,204.190002441406
417.672,386.220031738281
417.682,507.500030517578
417.692,540.430053710938
417.702,534.940002441406
417.712,512.150024414062
417.722,499.900024414062
417.732,501.410034179688
417.742,509.600036621094
417.752,520.170043945312
417.762,508.830017089844
417.772,473.790008544922
417.782,415.800018310547
417.792,381.360015869141
417.802,346.460021972656
417.812,267.290008544922
417.822,214.020004272461
417.831,156.310012817383
417.841,112.630004882812
417.851,99.9600067138672
417.861,80.1100006103516
417.871,76.7200012207031
417.881,94.390007019043
417.891,115.810005187988
417.901,70.4900054931641
417.911,-47.0000038146973
417.921,-132.260009765625
417.931,-47.0700035095215
417.941,7.63000059127808
417.951,52.7400016784668
417.961,170.870010375977
417.971,262.220001220703
417.981,276.740020751953
417.991,298.690002441406
418.001,267.540008544922
418.011,212.900009155273
418.021,100.130004882812
418.03,125.68000793457
418.04,110.320007324219
418.05,103.350006103516
418.06,40.1800003051758
418.07,-24.2500019073486
418.08,-71.2900009155273
418.09,-63.1400032043457
418.1,-38.1500015258789
418.11,24.5700016021729
418.12,92.7500076293945
418.13,146.09001159668
418.14,141.360000610352
418.15,157.570007324219
418.16,204.990005493164
418.17,256.230010986328
418.18,225.010009765625
418.19,60.1300010681152
418.2,-109.370002746582
418.21,-271.210021972656
418.22,-405.440032958984
418.224,-197.010009765625
418.234,-51.5900039672852
418.244,26.980001449585
418.254,56.1400032043457
418.264,77.140007019043
418.274,114.17000579834
418.284,58.6900024414062
418.294,14.1000003814697
418.304,-55.4000015258789
418.314,-130.900009155273
418.324,-170.970001220703
418.334,-197.290008544922
418.344,-223.750015258789
418.354,-223.750015258789
418.364,-238.030014038086
418.374,-231.84001159668
418.382,-175.800003051758
418.392,-114.520004272461
418.402,-59.2200012207031
418.412,-31.2200012207031
418.422,-20.4700012207031
418.432,-3.4300000667572
418.442,23.2400016784668
418.452,56.9100036621094
418.462,100.240005493164
418.472,145.18000793457
418.482,196.140014648438
418.492,253.960006713867
418.502,314.680023193359
418.512,366.590026855469
418.522,394.830017089844
418.532,398.720031738281
418.542,290.740020751953
418.552,43.8900032043457
418.562,-132.650009155273
418.572,-351.890014648438
418.581,-485.410034179688
418.591,-551.210021972656
418.601,-659.850036621094
418.611,-741.400024414062
418.621,-746.900024414062
418.631,-648.620056152344
418.641,-512.570007324219
418.651,-321.090026855469
418.661,-136.600006103516
418.671,23.4100017547607
418.681,156.900009155273
418.691,249.510009765625
418.701,321.860015869141
418.711,381.570007324219
418.721,386.430023193359
418.731,354.620025634766
418.741,367.180023193359
418.751,432.740020751953
418.761,563.25
418.771,673.330017089844
418.78,721.450012207031
418.79,662.930053710938
418.8,571.550048828125
418.81,445.370025634766
418.82,314.540008544922
418.83,217.000015258789
418.84,137.480010986328
418.85,80.6700057983398
418.86,53.0200042724609
418.87,45.2900009155273
418.88,73.9900054931641
418.89,115.740005493164
418.9,150.080001831055
418.91,181.720001220703
418.92,196.240005493164
418.93,169.010009765625
418.94,124.810005187988
418.95,61.6300010681152
418.96,1.96000003814697
418.97,-62.8900032043457
418.974,-141.220001220703
418.984,-148.330001831055
418.994,-142.870010375977
419.004,-126.910003662109
419.014,-151.060012817383
419.024,-160.960006713867
419.034,-187.770004272461
419.044,-176.750015258789
419.054,-171.780014038086
419.064,-143.530014038086
419.074,-105.280006408691
419.084,-78.6100006103516
419.094,-57.6100044250488
419.104,-25.060001373291
419.114,-15.5700006484985
419.124,3.88000011444092
419.132,24.5700016021729
419.142,47.0700035095215
419.152,82.8100051879883
419.162,107.060005187988
419.172,117.000007629395
419.182,104.68000793457
419.192,85.120002746582
419.202,53.6500015258789
419.212,37.1000022888184
419.222,12.8800010681152
419.232,3.57000017166138
419.242,11.4400005340576
419.252,44.3800010681152
419.262,85.1500015258789
419.272,146.260009765625
419.282,208.280014038086
419.292,259.170013427734
419.302,266.559997558594
419.312,267.150024414062
419.322,238.59001159668
419.331,188.93000793457
419.341,128.830001831055
419.351,68.1800003051758
419.361,4.20000028610229
419.371,-65.620002746582
419.381,-119.140007019043
419.391,-167.960006713867
419.401,-184.970001220703
419.411,-179.230010986328
419.421,-169.820007324219
419.431,-162.190002441406
419.441,-135.270004272461
419.451,-113.890007019043
419.461,-86.3100051879883
419.471,-67.4400024414062
419.481,-48.8200035095215
419.491,-48.1600036621094
419.501,-35.8000030517578
419.511,-40.6000022888184
419.521,-36.0800018310547
419.53,-23.5500011444092
419.54,1.08000004291534
419.55,21.9400005340576
419.56,53.6900024414062
419.57,80.5300064086914
419.58,94.0400009155273
419.59,107.900001525879
419.6,103.530006408691
419.61,97.4700012207031
419.62,78.5400009155273
419.63,58.4100036621094
419.64,34.7900009155273
419.65,17.9900016784668
419.66,3.46000027656555
419.67,-2.20000004768372
419.68,16.060001373291
419.69,36.9200019836426
419.7,69.5100021362305
419.71,97.8600082397461
419.72,122.950004577637
419.724,102.440002441406
419.734,77.3100051879883
419.744,42.7300033569336
419.754,26.0000019073486
419.764,18.480001449585
419.774,13.7200002670288
419.784,-2.52000021934509
419.794,-12.1400003433228
419.804,-21.2100009918213
419.814,-16.5900001525879
419.824,-5.53000020980835
419.834,4.44000005722046
419.844,4.58000040054321
419.854,9.24000072479248
419.864,15.0100011825562
419.874,29.4000015258789
419.882,43.5000038146973
419.892,60.4800033569336
419.902,70.1700057983398
419.912,75.4200057983398
419.922,73.7800064086914
419.932,76.3000030517578
419.942,74.4800033569336
419.952,72.0300064086914
419.962,53.7200012207031
419.972,30.1000022888184
419.982,-0.520000040531158
419.992,-10.0100002288818
420.002,-12.8800010681152
420.012,-6.23000049591064
420.022,-1.29000008106232
420.032,2.06000018119812
420.042,8.05000019073486
420.052,17.7800006866455
420.062,22.2600002288818
420.072,34.0900001525879
420.081,17.7800006866455
420.091,-6.37000036239624
420.101,-11.1600008010864
420.111,-15.2600011825562
420.121,3.4300000667572
420.131,16.060001373291
420.141,21.5900001525879
420.151,32.8300018310547
420.161,48.5100021362305
420.171,57.3300018310547
420.181,66.3899993896484
420.191,58.2400016784668
420.201,40.0400009155273
420.211,10.710000038147
420.221,-9.55000019073486
420.231,-30.3400020599365
420.241,-48.1600036621094
420.251,-49.7000007629395
420.261,-56.1000022888184
420.271,-51.7300033569336
420.28,-32.9700012207031
420.29,-17.6700000762939
420.3,-2.48000001907349
420.31,9.27000045776367
420.32,6.12000036239624
420.33,3.78000020980835
420.34,8.89000034332275
420.35,3.57000017166138
420.36,2.62000012397766
420.37,-6.05000019073486
420.38,-22.6800003051758
420.39,-21.9400005340576
420.4,-17.0799999237061
420.41,-15.4300003051758
420.42,3.3600001335144
420.43,8.92000007629395
420.44,16.9700012207031
420.45,36.75
420.46,42.4500007629395
420.47,55.5800018310547
420.474,65.6600036621094
420.484,69.6800003051758
420.494,63.7000045776367
420.504,60.2000045776367
420.514,61.7700042724609
420.524,59.0800018310547
420.534,62.5800018310547
420.544,55.1900024414062
420.554,38.2900009155273
420.564,27.1600017547607
420.574,19.560001373291
420.584,16.1000003814697
420.594,6.96000051498413
420.604,-12.0400009155273
420.614,-19.7400016784668
420.624,-13.5100002288818
420.632,-7.94000053405762
420.642,-1.19000005722046
420.652,-14.5600004196167
420.662,-25.2700004577637
420.672,-15.8200006484985
420.682,-3.57000017166138
420.692,-1.19000005722046
420.702,-4.20000028610229
420.712,-22.9600009918213
420.722,-23.5900020599365
420.732,-16.310001373291
420.742,-22.8200016021729
420.752,-29.6400012969971
420.762,-46.0900039672852
420.772,-35.4900016784668
420.782,-12.3200006484985
420.792,-10.0400009155273
420.802,-12.4900007247925
420.812,-32.4400024414062
420.822,-31.0800018310547
420.831,-32.9300003051758
420.841,-46.6900024414062
420.851,-63.0300025939941
420.861,-70.2400054931641
420.871,-63.8000030517578
420.881,-45.7400016784668
420.891,-43.6100006103516
420.901,-50.7100028991699
420.911,-58.4100036621094
420.921,-44.060001373291
420.931,-22.4000015258789
420.941,-27.8200016021729
420.951,-34.5800018310547
420.961,-43.8500022888184
420.971,-22.6400012969971
420.981,-15.5400009155273
420.991,-16.5500011444092
421.001,-24.3900012969971
421.011,-25.4100017547607
421.021,-4.90000009536743
421.029,4.62000036239624
421.039,7.10000038146973
421.049,3.39000010490417
421.059,17.3600006103516
421.069,25.2700004577637
421.079,13.4700002670288
421.089,-8.99000072479248
421.099,-25.4100017547607
421.109,-29.6100006103516
421.119,-40.3900032043457
421.129,-44.6600036621094
421.139,-39.8300018310547
421.149,-31.5000019073486
421.159,-11.2000007629395
421.169,11.8300008773804
421.179,11.6500005722046
421.189,13.3700008392334
421.199,36.7100028991699
421.209,36.2900009155273
421.219,36.3300018310547
421.223,-50.9900016784668
421.233,-84.8400039672852
421.243,-112.980003356934
421.253,-161.170013427734
421.263,-202.120010375977
421.273,-206.740005493164
421.283,-214.690017700195
421.293,-220.810012817383
421.303,-217.630004882812
421.313,-209.300003051758
421.323,-202.120010375977
421.333,-200.830017089844
421.343,-204.640014648438
421.353,-200.34001159668
421.363,-177.410003662109
421.373,-141.150009155273
421.382,-107.76000213623
421.392,-78.3600006103516
421.402,-34.370002746582
421.412,-2.52000021934509
421.422,10.6700000762939
421.432,15.6400003433228
421.442,35.5200004577637
421.452,56.9400024414062
421.462,71.5
421.472,68.5300064086914
421.482,57.6400032043457
421.492,63.8000030517578
421.502,65.1300048828125
421.512,46.4800033569336
421.522,19.980001449585
421.532,-1.26000010967255
421.542,-1.82000005245209
421.552,-3.92000007629395
421.562,-13.4000005722046
421.572,-26.5300006866455
421.581,-34.7900009155273
421.591,-29.3600006103516
421.601,-18.8600006103516
421.611,-11.5800008773804
421.621,-9.17000007629395
421.631,1.12000000476837
421.641,19.4600009918213
421.651,32.6500015258789
421.661,25.3400020599365
421.671,25.3700008392334
421.681,31.9900016784668
421.691,52.8500022888184
421.701,72.4100036621094
421.711,81.2000045776367
421.721,83.6800003051758
421.731,73.3600006103516
421.741,76.3000030517578
421.751,68.2100067138672
421.761,41.4000015258789
421.771,17.6000003814697
421.779,-7.87000036239624
421.789,-19.1100006103516
421.799,-19.9100017547607
421.809,-21.980001449585
421.819,-23.060001373291
421.829,-28.5900020599365
421.839,-24.3200016021729
421.849,-24.3200016021729
421.859,-36.4300003051758
421.869,-53.3400039672852
421.879,-77.2400054931641
421.889,-103.110008239746
421.899,-120.750007629395
421.909,-129.740005493164
421.919,-119.800003051758
421.929,-82.3200073242188
421.939,-38.5300025939941
421.949,0.100000001490116
421.959,38.4600028991699
421.969,92.0100021362305
421.973,187.980010986328
421.983,175.490005493164
421.993,108.500007629395
422.003,21.6600017547607
422.013,-40.810001373291
422.023,-92.7100067138672
422.033,-100.76000213623
422.043,-104.890007019043
422.053,-132.370010375977
422.063,-148.610000610352
422.073,-170.240005493164
422.083,-164.250015258789
422.093,-174.750015258789
422.103,-166.980010986328
422.113,-151.900009155273
422.123,-137.690002441406
422.132,-104.93000793457
422.142,-41.9600028991699
422.152,16.2700004577637
422.162,55.5400009155273
422.172,85.640007019043
422.182,91.9400024414062
422.192,107.340003967285
422.202,100.590003967285
422.212,73.3600006103516
422.222,15.8500003814697
422.232,-55.5800018310547
422.242,-124.880004882812
422.252,-202.160003662109
422.262,-275.940002441406
422.272,-342.720001220703
422.282,-391.890014648438
422.292,-405.370025634766
422.302,-357.910003662109
422.312,-264.460021972656
422.322,-171.460006713867
422.331,-88.1300048828125
422.341,-19.3200016021729
422.351,46.9700012207031
422.361,96.140007019043
422.371,131.139999389648
422.381,154.100006103516
422.391,168.070007324219
422.401,180.040008544922
422.411,189.030014038086
422.421,187.000015258789
422.431,177.480010986328
422.441,181.750015258789
422.451,176.010009765625
422.461,142.200012207031
422.471,79.9400024414062
422.481,8.22000026702881
422.491,-54.810001373291
422.501,-102.720001220703
422.511,-119.42000579834
422.521,-139.510009765625
422.529,-158.370010375977
422.539,-118.090003967285
422.549,-23.6200008392334
422.559,41.8600006103516
422.569,34.7200012207031
422.579,18.9000015258789
422.589,29.9200019836426
422.599,60.7900047302246
422.609,105.100006103516
422.619,110.320007324219
422.629,68.140007019043
422.639,29.3600006103516
422.649,1.92000007629395
422.659,9.13000011444092
422.669,-2.48000001907349
422.679,-65.9400024414062
422.689,-139.470001220703
422.699,-198.310012817383
422.709,-227.990005493164
422.719,-228.09001159668
422.723,-36.8500022888184
422.733,32.8300018310547
422.743,72.5500030517578
422.753,107.800003051758
422.763,142.660003662109
422.773,146.09001159668
422.783,121.730003356934
422.793,60.930004119873
422.803,-1.92000007629395
422.813,-46.4800033569336
422.823,-74.7600021362305
422.833,-78.0100021362305
422.843,-65.9000015258789
422.853,-64.8899993896484
422.863,-57.1500015258789
422.873,-42.5900001525879
422.882,-27.4700012207031
422.892,-30.9700012207031
422.902,-40.3900032043457
422.912,-44.3400039672852
422.922,-34.6800003051758
422.932,-12.9500007629395
422.942,14.2800006866455
422.952,41.3300018310547
422.962,66.0100021362305
422.972,90.1600036621094
422.982,112.17000579834
422.992,114.060005187988
423.002,108.810005187988
423.012,83.8200073242188
423.022,43.8900032043457
423.032,30.2700023651123
423.042,7.21000051498413
423.052,-3.1800000667572
423.062,-16.6599998474121
423.072,-25.480001449585
423.081,-19.1400012969971
423.091,-10.9900007247925
423.101,6.47000026702881
423.111,19.25
423.121,36.9600028991699
423.131,53.620002746582
423.141,75.2100067138672
423.151,99.9600067138672
423.161,101.570007324219
423.171,84.5900039672852
423.181,63.3500022888184
423.191,27.3700008392334
423.201,-16.6599998474121
423.211,-64.75
423.221,-114.690002441406
423.231,-164.670013427734
423.241,-186.410003662109
423.251,-199.290008544922
423.261,-203.980010986328
423.271,-189.700012207031
423.279,-153.860000610352
423.289,-104.120002746582
423.299,-48.5400009155273
423.309,7.45000028610229
423.319,44.2000007629395
423.329,77.0700073242188
423.339,115.360008239746
423.349,137.900009155273
423.359,146.889999389648
423.369,140
423.379,112.030006408691
423.389,83.5800018310547
423.399,52.7800025939941
423.409,12.0700006484985
423.419,-28.0300006866455
423.429,-58.060001373291
423.439,-82.1100006103516
423.449,-82.0400009155273
423.459,-74.2000045776367
423.469,-73.6700057983398
423.473,-15.6400003433228
423.483,-9.03000068664551
423.493,-4.23000001907349
423.503,9.52000045776367
423.513,12.6700010299683
423.523,13.4000005722046
423.533,13.0200004577637
423.543,12.7700004577637
423.553,4.30000019073486
423.563,1.82000005245209
423.573,4.97000026702881
423.583,-3.92000007629395
423.593,-16.1700000762939
423.603,-41.7500038146973
423.613,-57.7100028991699
423.623,-77.140007019043
423.632,-97.6100082397461
423.642,-101.150001525879
423.652,-112.030006408691
423.662,-111.68000793457
423.672,-95.2700042724609
423.682,-72.1700057983398
423.692,-54.7000007629395
423.702,-26.9100017547607
423.712,-7.91000032424927
423.722,-8.47000026702881
423.732,-15.3300008773804
423.742,-18.3000011444092
423.752,-14.3100004196167
423.762,-24.3900012969971
423.772,-35.0300025939941
423.782,-53.620002746582
423.792,-53.8600044250488
423.802,-42.7700004577637
423.812,-36.7100028991699
423.822,-17.4600009918213
423.831,30.1300010681152
423.841,67.8600006103516
423.851,89.5300064086914
423.861,83.7500076293945
423.871,74.370002746582
423.881,75.6700057983398
423.891,70.870002746582
423.901,58.3400039672852
423.911,29.2200012207031
423.921,22.9200019836426
423.931,-5.67000007629395
423.941,-48.2600021362305
423.951,-93.1000061035156
423.961,-111.400001525879
423.971,-124.67000579834
423.981,-141.360000610352
423.991,-120.820007324219
424.001,-109.340003967285
424.011,-79.6900024414062
424.021,-54.810001373291
424.029,-28.310001373291
424.039,4.58000040054321
424.049,40.6700019836426
424.059,60.3400039672852
424.069,65.870002746582
424.079,72.870002746582
424.089,58.8300018310547
424.099,28.5200004577637
424.109,-10.5700006484985
424.119,-47.3500022888184
424.129,-59.7100028991699
424.139,-91.6300048828125
424.149,-102.93000793457
424.159,-95.0900039672852
424.169,-106.290008544922
424.179,-93.4500045776367
424.189,-69.7900009155273
424.199,-52.0400009155273
424.209,-20.7200012207031
424.219,13.1900005340576
424.223,122.950004577637
424.233,92.0800018310547
424.243,61.3500022888184
424.253,18.5800018310547
424.263,-26.9500007629395
424.273,-48.8900032043457
424.283,-84.0000076293945
424.293,-131.560012817383
424.303,-155.610000610352
424.313,-190.850006103516
424.323,-200.480010986328
424.333,-192.530014038086
424.343,-153.160003662109
424.353,-78.4000015258789
424.363,-42.4900016784668
424.373,6.82000017166138
424.382,83.0200042724609
424.392,123.720008850098
424.402,126.730003356934
424.412,121.590003967285
424.422,114.900009155273
424.432,103.490005493164
424.442,53.370002746582
424.452,27.6800022125244
424.462,5.91000032424927
424.472,-26.0000019073486
424.482,-49.0300025939941
424.492,-23.5500011444092
424.502,-25.8600006103516
424.512,-20.4000015258789
424.522,-8.89000034332275
424.532,0.310000002384186
424.542,14.1400003433228
424.552,1.05000007152557
424.562,-8.26000022888184
424.572,-17.9900016784668
424.581,-27.4700012207031
424.591,-36.5
424.601,-19.4600009918213
424.611,31.2200012207031
424.621,77.3100051879883
424.631,89.4200057983398
424.641,113.890007019043
424.651,128.660003662109
424.661,126.490005493164
424.671,101.600006103516
424.681,66.9200057983398
424.691,16.5500011444092
424.701,-37.620002746582
424.711,-78.6100006103516
424.721,-92.5400009155273
424.731,-106.01000213623
424.741,-115.710006713867
424.751,-84.5200042724609
424.761,-43.2600021362305
424.771,-12.3500003814697
424.779,16.730001449585
424.789,45.8500022888184
424.799,56.4200019836426
424.809,49.2400016784668
424.819,47.0700035095215
424.829,27.7500019073486
424.839,3.67000007629395
424.849,-27.8200016021729
424.859,-31.6000022888184
424.869,-10.460000038147
424.879,3.92000007629395
424.889,24.1500015258789
424.899,48.120002746582
424.909,70.0699996948242
424.919,84.0700073242188
424.929,113.400009155273
424.939,107.410003662109
424.949,76.6100006103516
424.959,50.5700035095215
424.969,28.4500007629395
424.973,-60.5500030517578
424.983,-77.9100036621094
424.993,-80.9500045776367
425.003,-86.5200042724609
425.013,-110.350006103516
425.023,-121.17000579834
425.033,-116.090003967285
425.043,-102.090003967285
425.053,-68.390007019043
425.063,-52.180004119873
425.073,-59.4600028991699
425.083,-78.1900024414062
425.093,-75.0700073242188
425.103,-49.310001373291
425.113,-52.0800018310547
425.123,-83.4700012207031
425.132,-102.580001831055
425.142,-107.310005187988
425.152,-123.340003967285
425.162,-113.400009155273
425.172,-86.8000030517578
425.182,-53.4800033569336
425.192,-4.65000009536743
425.202,67.8600006103516
425.212,118.160003662109
425.222,145.280014038086
425.232,172.410003662109
425.242,183.190002441406
425.252,148.990005493164
425.262,106.990005493164
425.272,55.2600021362305
425.282,-1.40000009536743
425.292,-50.680004119873
425.302,-63.5200042724609
425.312,-52.3600006103516
425.322,-38.3200035095215
425.33,-25.5800018310547
425.34,-19.1800003051758
425.35,-1.12000000476837
425.36,9.34000015258789
425.37,3.57000017166138
425.38,-5.28000020980835
425.39,-27.2600021362305
425.4,-61.2100028991699
425.41,-78.3600006103516
425.42,-117.950004577637
425.43,-183.640014648438
425.44,-199.570007324219
425.45,-164.360000610352
425.46,-99.7800064086914
425.47,-12.9100008010864
425.48,69.3300018310547
425.49,90.4700012207031
425.5,100.970001220703
425.51,121.030006408691
425.52,87.5700073242188
425.529,69.0500030517578
425.539,55.3000030517578
425.549,61.9800033569336
425.559,81.5800018310547
425.569,77.7700042724609
425.579,58.2000045776367
425.589,37.8300018310547
425.599,-9.80000019073486
425.609,-43.5000038146973
425.619,-73.4600067138672
425.629,-149.760009765625
425.639,-214.720016479492
425.649,-234.990005493164
425.659,-227.040008544922
425.669,-243.530014038086
425.679,-231.450012207031
425.689,-160.540008544922
425.699,-56.3500022888184
425.709,89.9500045776367
425.719,218.360015869141
425.723,205.690002441406
425.733,101.600006103516
425.743,2.73000001907349
425.753,-93.8300018310547
425.763,-164.640014648438
425.773,-211.920013427734
425.783,-273.980010986328
425.793,-316.120025634766
425.803,-291.230010986328
425.813,-218.750015258789
425.823,-211.120010375977
425.833,-221.370010375977
425.843,-190.43000793457
425.853,-158.020004272461
425.863,-133.450012207031
425.873,-91.3500061035156
425.882,-50.7100028991699
425.892,-13.6500005722046
425.902,75.6000061035156
425.912,177.870010375977
425.922,257.910003662109
425.932,298.790008544922
425.942,307.580017089844
425.952,313.25
425.962,316.330017089844
425.972,272.120025634766
425.982,175.84001159668
425.992,60.8600044250488
426.002,-21.8700008392334
426.012,-60.8300018310547
426.022,-105.350006103516
426.032,-155.75
426.042,-191.900009155273
426.052,-218.150009155273
426.062,-219.870010375977
426.072,-193.580001831055
426.08,-181.540008544922
426.09,-178.570007324219
426.1,-146.68000793457
426.11,-73.6700057983398
426.12,-13.3000001907349
426.13,38.6400032043457
426.14,103.280006408691
426.15,155.960006713867
426.16,196.520004272461
426.17,217.170013427734
426.18,200.160003662109
426.19,177.830001831055
426.2,145.389999389648
426.21,116.690002441406
426.22,66.3899993896484
426.23,-3.67000007629395
426.24,-45.1500015258789
426.25,-87.3600006103516
426.26,-140.84001159668
426.27,-154.560012817383
426.279,-151.130004882812
426.289,-155.260009765625
426.299,-124.950004577637
426.309,-57.3600044250488
426.319,-7.38000011444092
426.329,32.4800033569336
426.339,61.8800010681152
426.349,44.5900039672852
426.359,19.1100006103516
426.369,33.25
426.379,45.810001373291
426.389,43.8200035095215
426.399,42.7300033569336
426.409,17.1100006103516
426.419,0.730000019073486
426.429,12.3500003814697
426.439,23.5500011444092
426.449,30.1700019836426
426.459,10.8800001144409
426.469,11.2000007629395
426.473,39.0200004577637
426.483,58.1300010681152
426.493,73.9900054931641
426.503,49.2400016784668
426.513,35.4200019836426
426.523,17.6400012969971
426.533,-13.6100006103516
426.543,-43.1500015258789
426.553,-73.5
426.563,-95.2000045776367
426.573,-96.2800064086914
426.583,-72.9000015258789
426.593,-68.3500061035156
426.603,-78.2600021362305
426.613,-43.7100028991699
426.623,17.6000003814697
426.632,46.8300018310547
426.642,10.9200000762939
426.652,6.40000009536743
426.662,46.1600036621094
426.672,52.2900009155273
426.682,18.3700008392334
426.692,-6.26000022888184
426.702,14.5900011062622
426.712,39.3400001525879
426.722,30.2000007629395
426.732,-8.19000053405762
426.742,-12.1800003051758
426.752,10.8100004196167
426.762,16.9700012207031
426.772,-46.9700012207031
426.782,-74.3400039672852
426.792,-62.2300033569336
426.802,-34.7900009155273
426.812,-51.4500007629395
426.822,-75.0400009155273
426.83,-43.7500038146973
426.84,-12.4600009918213
426.85,-21.3800010681152
426.86,-29.0500011444092
426.87,-11.7600002288818
426.88,18.0900001525879
426.89,55.5800018310547
426.9,98.2800064086914
426.91,161.030014038086
426.92,230.120010375977
426.93,291.200012207031
426.94,331.060028076172
426.95,302.050018310547
426.96,235.620010375977
426.97,198.900009155273
426.98,196.240005493164
426.99,180.18000793457
427,202.230010986328
427.01,231.730010986328
427.02,250.070007324219
427.029,259.800018310547
427.039,254.830017089844
427.049,237.93000793457
427.059,163.200012207031
427.069,79.2700042724609
427.079,-11.5800008773804
427.089,-119.310005187988
427.099,-212.660003662109
427.109,-305.650024414062
427.119,-388.150024414062
427.129,-451.010009765625
427.139,-476.070037841797
427.149,-482.750030517578
427.159,-444.180023193359
427.169,-353.950012207031
427.179,-245.520004272461
427.189,-137.09001159668
427.199,-63.2800025939941
427.209,-7.70000028610229
427.219,14.9400005340576
427.223,-32.2300033569336
427.233,-26.560001373291
427.243,-7.49000024795532
427.253,4.8600001335144
427.263,7.21000051498413
427.273,10.1100006103516
427.283,17.7400016784668
427.293,20.5400009155273
427.303,27.4700012207031
427.313,60.5800018310547
427.323,123.270004272461
427.333,187.000015258789
427.343,243.250015258789
427.353,310.870025634766
427.363,377.820007324219
427.373,410.650024414062
427.382,413.380004882812
427.392,430.390014648438
427.402,440.160034179688
427.412,429.310028076172
427.422,407.120025634766
427.432,372.920013427734
427.442,326.27001953125
427.452,284.930023193359
427.462,238.210006713867
427.472,194.700012207031
427.482,146.790008544922
427.492,99.1500015258789
427.502,67.0600051879883
427.512,30.060001373291
427.522,0.21000000834465
427.532,-17.2900009155273
427.542,-22.5700016021729
427.552,-26.3200016021729
427.562,-41.0500030517578
427.572,-64.2900009155273
427.58,-87.2900009155273
427.59,-106.960006713867
427.6,-151.510009765625
427.61,-207.020004272461
427.62,-240.270004272461
427.63,-233.100006103516
427.64,-213.810012817383
427.65,-165.580001831055
427.66,-90.5100021362305
427.67,-10.3600006103516
427.68,59.5700035095215
427.69,112.590003967285
427.7,173.250015258789
427.71,212.480010986328
427.72,231.770004272461
427.73,227.880004882812
427.74,189.280014038086
427.75,163.620010375977
427.76,138.350006103516
427.77,123.720008850098
427.779,123.060005187988
427.789,122.92000579834
427.799,139.75
427.809,149.730010986328
427.819,171.600006103516
427.829,194.210006713867
427.839,198.270004272461
427.849,197.150009155273
427.859,184.900009155273
427.869,163.800003051758
427.879,138.770004272461
427.889,74.370002746582
427.899,24.1100006103516
427.909,-10.9500007629395
427.919,-36.1900024414062
427.929,-41.120002746582
427.939,-59.7800025939941
427.949,-55.8200035095215
427.959,-32.3000030517578
427.969,0.700000047683716
427.973,84.4900054931641
427.983,78.5
427.993,72.8000030517578
428.003,64.1500015258789
428.013,28.730001449585
428.023,4.30000019073486
428.033,-24.7800006866455
428.043,-50.6100006103516
428.053,-75.6300048828125
428.063,-110.250007629395
428.073,-144.760009765625
428.083,-172.09001159668
428.093,-191.410003662109
428.103,-194.530014038086
428.113,-194.280014038086
428.123,-178.780014038086
428.132,-140
428.142,-88.4400024414062
428.152,-32.1599998474121
428.162,27.0500011444092
428.172,84.2400054931641
428.182,126.280006408691
428.192,147.070007324219
428.202,160.580001831055
428.212,152.420013427734
428.222,127.990005493164
428.232,109.900001525879
428.242,85.5700073242188
428.252,58.4800033569336
428.262,38.1800003051758
428.272,9.17000007629395
428.282,-23.1700019836426
428.292,-45.9900016784668
428.302,-51.8300018310547
428.312,-55.5100021362305
428.322,-66.9200057983398
428.33,-80.0800018310547
428.34,-86.3400039672852
428.35,-81.7600021362305
428.36,-50.1500015258789
428.37,-34.4000015258789
428.38,5.07000017166138
428.39,9.3100004196167
428.4,7.98000049591064
428.41,3.60000014305115
428.42,10.7800006866455
428.43,36.0800018310547
428.44,51.1700019836426
428.45,52.3600006103516
428.46,51.1000022888184
428.47,48.4700012207031
428.48,62.1600036621094
428.49,97.1600036621094
428.5,143.360000610352
428.51,169.540008544922
428.52,201.980010986328
428.529,216.510009765625
428.539,234.320007324219
428.549,245.280014038086
428.559,224.700012207031
428.569,165.93000793457
428.579,108.640007019043
428.589,48.2600021362305
428.599,-6.05000019073486
428.609,-66.3899993896484
428.619,-101.92000579834
428.629,-123.440002441406
428.639,-111.540008544922
428.649,-80.6700057983398
428.659,-43.6100006103516
428.669,8.57000064849854
428.679,53.5100021362305
428.689,88.7600021362305
428.699,116.440002441406
428.709,140.310012817383
428.719,160.750015258789
428.723,102.970001220703
428.733,65.0300064086914
428.743,31.4300022125244
428.753,-1.36000001430511
428.763,-25.8600006103516
428.773,-37.2000007629395
428.783,-41.2300033569336
428.793,-24.7800006866455
428.803,-6.96000051498413
428.813,22.0100002288818
428.823,30.4500007629395
428.833,38.2900009155273
428.843,40.1800003051758
428.853,47.180004119873
428.863,51.6900024414062
428.873,58.6900024414062
428.882,54.6700019836426
428.892,57.0800018310547
428.902,57.5700035095215
428.912,54.560001373291
428.922,61.3900032043457
428.932,69.6100006103516
428.942,60.4100036621094
428.952,51.2700042724609
428.962,27.3300018310547
428.972,0.21000000834465
428.982,-18.7900009155273
428.992,-40.9800033569336
429.002,-65.5500030517578
429.012,-78.9200057983398
429.022,-76.6500015258789
429.032,-60.4100036621094
429.042,-23.1000003814697
429.052,21.5200004577637
429.062,63.560001373291
429.072,86.1700057983398
429.08,95.4400024414062
429.09,90.0200042724609
429.1,73.4600067138672
429.11,59.0800018310547
429.12,45.8500022888184
429.13,17.810001373291
429.14,-18.3400001525879
429.15,-45.5700035095215
429.16,-65.2700042724609
429.17,-71.890007019043
429.18,-63.0000038146973
429.19,-55.7500038146973
429.2,-50.430004119873
429.21,-30.730001449585
429.22,-4.37000036239624
429.23,32.4400024414062
429.24,64.8899993896484
429.25,80.8500061035156
429.26,93.0600051879883
429.27,96.1800079345703
429.279,106.990005493164
429.289,110.490005493164
429.299,108.740005493164
429.309,83.3000030517578
429.319,64.3600006103516
429.329,67.2300033569336
429.339,85.8500061035156
429.349,116.230003356934
429.359,143.920013427734
429.369,141.639999389648
429.379,122.290008544922
429.389,99.0500030517578
429.399,81.4100036621094
429.409,56.0700035095215
429.419,29.7100009918213
429.429,-5.84000015258789
429.439,-25.6500015258789
429.449,-25.3400020599365
429.459,-15.9900007247925
429.469,4.55000019073486
429.473,27.4400005340576
429.483,11.8300008773804
429.493,-6.96000051498413
429.503,-28.4200019836426
429.513,-44.6600036621094
429.523,-43.5000038146973
429.533,-44.9700012207031
429.543,-30.6200008392334
429.553,-19
429.563,-5.35000038146973
429.573,13.7900009155273
429.583,32.0200004577637
429.593,51.7300033569336
429.603,56.9400024414062
429.613,50.6100006103516
429.623,36.8500022888184
429.631,24.6400012969971
429.641,4.51000022888184
429.651,-1.96000003814697
429.661,-13.3300008773804
429.671,-31.5300006866455
429.681,-36.120002746582
429.691,-37.870002746582
429.701,-27.4400005340576
429.711,-15.0500011444092
429.721,-9.34000015258789
429.731,-11.7200002670288
429.741,-7.10000038146973
429.751,6.65000009536743
429.761,15.7800006866455
429.771,22.7800006866455
429.781,16.5200004577637
429.791,8.78000068664551
429.801,15.6400003433228
429.811,28.6300010681152
429.821,38.4600028991699
429.83,39.3000030517578
429.84,46.0200004577637
429.85,55.9600028991699
429.86,66.0100021362305
429.87,74.0200042724609
429.88,60.2700042724609
429.89,28.9100017547607
429.9,20.2600002288818
429.91,3.46000027656555
429.92,-6.54000043869019
429.93,-13.1600008010864
429.94,-35.0700035095215
429.95,-47.4200019836426
429.96,-32.4800033569336
429.97,-7.1700005531311
429.98,18.6200008392334
429.99,29.9600009918213
430,35.3500022888184
430.01,52.7400016784668
430.02,69.8600006103516
430.029,77.140007019043
430.039,70.3500061035156
430.049,52.7100028991699
430.059,44.4800033569336
430.069,45.1500015258789
430.079,37.1700019836426
430.089,30.5900020599365
430.099,8.99000072479248
430.109,-1.36000001430511
430.119,3.1800000667572
430.129,0.310000002384186
430.139,-4.26999998092651
430.149,-13.8200006484985
430.159,-10.9900007247925
430.169,0.21000000834465
430.179,2.24000000953674
430.189,11.1300001144409
430.199,3.57000017166138
430.209,3.67000007629395
430.219,16.480001449585
430.223,20.7500019073486
430.233,25.7900009155273
430.243,33.4600028991699
430.253,41.8200035095215
430.263,56.5900039672852
430.273,59.6700019836426
430.283,59.4600028991699
430.293,51.060001373291
430.303,27.5100021362305
430.313,2.69000005722046
430.323,-22.3300018310547
430.333,-33.6300010681152
430.343,-45.6000022888184
430.353,-45.0100021362305
430.363,-25.2000007629395
430.373,-16.9000015258789
430.381,1.85000014305115
430.391,13.0500001907349
430.401,26.8800010681152
430.411,38.5700035095215
430.421,45.5700035095215
430.431,43.2600021362305
430.441,23.6900005340576
430.451,13.1900005340576
430.461,7.94000053405762
430.471,7.63000059127808
430.481,0.840000033378601
430.491,-6.47000026702881
430.501,-5.39000034332275
430.511,-3.3600001335144
430.521,4.51000022888184
430.531,3.50000023841858
430.541,7.24000024795532
430.551,5.49000024795532
430.561,14.4900007247925
430.571,10.5000009536743
430.58,-3.29000020027161
430.59,-0.840000033378601
430.6,1.82000005245209
430.61,4.09000015258789
430.62,-5.77000045776367
430.63,-11.6500005722046
430.64,-15.9200010299683
430.65,-7.4200005531311
430.66,5.35000038146973
430.67,8.57000064849854
430.68,17.2200012207031
430.69,29.2600021362305
430.7,26.4900016784668
430.71,9.45000076293945
430.72,2.03000020980835
430.73,7.28000020980835
430.74,6.12000036239624
430.75,-2.97000002861023
430.76,-1.15000009536743
430.77,10.2500009536743
430.779,18.480001449585
430.789,19.7400016784668
430.799,13.7500009536743
430.809,12.7000007629395
430.819,9.52000045776367
430.829,-1.08000004291534
430.839,-33.4900016784668
430.849,-43.2900009155273
430.859,-37.3400001525879
430.869,-33.8400001525879
430.879,-27.3000011444092
430.889,-9.73000049591064
430.899,11.9300003051758
430.909,15.8900003433228
430.919,12.3500003814697
430.929,8.53999996185303
430.939,13.6800003051758
430.949,19.6000003814697
430.959,14.9100008010864
430.969,-2.06000018119812
430.973,2.62000012397766
430.983,9.10000038146973
430.993,0.0300000011920929
431.003,-2.69000005722046
431.013,5.21000003814697
431.023,12.5300006866455
431.033,2.80000019073486
431.043,-6.93000030517578
431.053,-3.08000016212463
431.063,6.54000043869019
431.073,9.48000049591064
431.083,5.35000038146973
431.093,4.16000032424927
431.103,1.15000009536743
431.113,-0.240000009536743
431.123,2.17000007629395
431.131,7.84000015258789
431.141,6.30000019073486
431.151,0.420000016689301
431.161,-10.8500003814697
431.171,-7.1700005531311
431.181,2.94000005722046
431.191,6.8600001335144
431.201,-2.83000016212463
431.211,-8.96000003814697
431.221,-6.19000005722046
431.231,-7.4200005531311
431.241,-6.82000017166138
431.251,-0.450000017881393
431.261,-9.3100004196167
431.271,-13.1200008392334
431.281,-0.490000009536743
431.291,-4.37000036239624
431.301,-3.39000010490417
431.311,1.82000005245209
431.321,1.96000003814697
431.33,-2.31000018119812
431.34,-1.26000010967255
431.35,0.420000016689301
431.36,-1.6800000667572
431.37,0.140000000596046
431.38,-1.08000004291534
431.39,-6.12000036239624
431.4,-5.28000020980835
431.41,-2.45000004768372
431.42,-3.92000007629395
431.43,-3.74000024795532
431.44,-8.15000057220459
431.45,-9.97000026702881
431.46,-12.8100004196167
431.47,-16.5900001525879
431.48,-24.6400012969971
431.49,-26.0700016021729
431.5,-24.2900009155273
431.51,-25.8600006103516
431.52,-16.1000003814697
431.529,-4.44000005722046
431.539,4.0600004196167
431.549,13.2600002288818
431.559,12.9800004959106
431.569,18.9700012207031
431.579,35.310001373291
431.589,25.5500011444092
431.599,11.1300001144409
431.609,23.730001449585
431.619,22.3600006103516
431.629,11.4100008010864
431.639,-13.6100006103516
431.649,-42.7700004577637
431.659,-35.4200019836426
431.669,-27.4400005340576
431.679,-10.3200006484985
431.689,7.24000024795532
431.699,-9.66000080108643
431.709,-7.1700005531311
431.719,-28.5200004577637
431.723,-49.2100028991699
431.733,-3.95000028610229
431.743,33.8400001525879
431.753,58.0300025939941
431.763,79.8000030517578
431.773,87.1500015258789
431.783,85.640007019043
431.793,93.9400024414062
431.803,81.9300003051758
431.813,30.2000007629395
431.823,-9.55000019073486
431.833,-32.6900024414062
431.843,-33.4200019836426
431.853,-29.7100009918213
431.863,-28.7700004577637
431.873,-40.5300025939941
431.881,-54.1400032043457
431.891,-56.2100028991699
431.901,-68.9500045776367
431.911,-77.4500045776367
431.921,-107.450004577637
431.931,-101.250007629395
431.941,-75.5600051879883
431.951,-53.4400024414062
431.961,-1.99000012874603
431.971,45.7800025939941
431.981,64.6800003051758
431.991,100.060005187988
432.001,116.620002746582
432.011,101.530006408691
432.021,70.9400024414062
432.031,16.060001373291
432.041,27.5800018310547
432.051,11.2300004959106
432.061,-40.6000022888184
432.071,-39.1300010681152
432.08,-45.3600006103516
432.09,-63.870002746582
432.1,-39.5800018310547
432.11,-57.0500030517578
432.12,-109.580001831055
432.13,-89.5600051879883
432.14,-32.9300003051758
432.15,-17.4300003051758
432.16,18.4100017547607
432.17,72.5500030517578
432.18,74.3000030517578
432.19,91.8000030517578
432.2,103.740005493164
432.21,54.7000007629395
432.22,10.1500005722046
432.23,-23.5900020599365
432.24,-75.8100051879883
432.25,-120.640007019043
432.26,-141.43000793457
432.27,-156.200012207031
432.279,-164.640014648438
432.289,-134.010009765625
432.299,-84.7300033569336
432.309,-38.3900032043457
432.319,30.6900005340576
432.329,96.4900054931641
432.339,136.040008544922
432.349,187.000015258789
432.359,200.370010375977
432.369,194.530014038086
432.379,186.060012817383
432.389,162.120010375977
432.399,122.810005187988
432.409,72.8300018310547
432.419,31.5300006866455
432.429,-3.71000027656555
432.439,-36.4300003051758
432.449,-52.4600028991699
432.459,-54.560001373291
432.469,-59.1100044250488
432.473,49.560001373291
432.483,53.8300018310547
432.493,53.2300033569336
432.503,49.5900039672852
432.513,25.5500011444092
432.523,1.75000011920929
432.533,-13.5800008773804
432.543,-39.7900009155273
432.553,-68.8800048828125
432.563,-96.6000061035156
432.573,-117.320007324219
432.583,-134.960006713867
432.593,-132.300003051758
432.603,-129.460006713867
432.613,-146.09001159668
432.623,-148.68000793457
432.631,-121.900009155273
432.641,-95.620002746582
432.651,-83.3000030517578
432.661,-49.4900016784668
