Time,AccelerometerX
339.043,-0.85791015625
339.053,-0.5830078125
339.063,-0.25732421875
339.073,-0.0177154541015625
339.083,0.0562744140625
339.093,-0.0217742919921875
339.103,-0.188720703125
339.113,-0.37841796875
339.123,-0.53955078125
339.132,-0.642578125
339.142,-0.671875
339.152,-0.625
339.162,-0.51953125
339.172,-0.388916015625
339.182,-0.275390625
339.192,-0.2119140625
339.202,-0.2000732421875
339.212,-0.2210693359375
339.222,-0.257568359375
339.232,-0.3046875
339.242,-0.370361328125
339.252,-0.463134765625
339.262,-0.5771484375
339.272,-0.68408203125
339.282,-0.74462890625
339.292,-0.73681640625
339.302,-0.66064453125
339.312,-0.53173828125
339.322,-0.373779296875
339.331,-0.2064208984375
339.341,-0.055084228515625
339.351,0.045440673828125
339.361,0.07940673828125
339.371,0.056243896484375
339.381,0.00135421752929688
339.391,-0.046630859375
339.401,-0.0677490234375
339.411,-0.0772705078125
339.421,-0.1002197265625
339.431,-0.145751953125
339.441,-0.1959228515625
339.451,-0.230224609375
339.461,-0.265869140625
339.471,-0.353271484375
339.481,-0.53271484375
339.491,-0.80224609375
339.501,-1.1171875
339.511,-1.4072265625
339.521,-1.6005859375
339.529,-1.6435546875
339.539,-1.5107421875
339.549,-1.2109375
339.559,-0.8046875
339.569,-0.411376953125
339.579,-0.1446533203125
339.589,-0.038543701171875
339.599,-0.04632568359375
339.609,-0.0947265625
339.619,-0.1279296875
339.629,-0.136474609375
339.639,-0.145751953125
339.649,-0.1669921875
339.659,-0.181396484375
339.669,-0.167724609375
339.679,-0.12445068359375
339.689,-0.07305908203125
339.699,-0.047576904296875
339.709,-0.074951171875
339.719,-0.1593017578125
339.723,-0.48876953125
339.733,-0.3701171875
339.743,-0.2105712890625
339.753,-0.07049560546875
339.763,0.000278711318969727
339.773,-0.014923095703125
339.783,-0.1016845703125
339.793,-0.23046875
339.803,-0.364013671875
339.813,-0.47900390625
339.823,-0.578125
339.833,-0.66064453125
339.843,-0.70751953125
339.853,-0.70458984375
339.863,-0.6591796875
339.873,-0.583984375
339.882,-0.494384765625
339.892,-0.40380859375
339.902,-0.318603515625
339.912,-0.2471923828125
339.922,-0.197021484375
339.932,-0.177978515625
339.942,-0.208740234375
339.952,-0.298583984375
339.962,-0.43359375
339.972,-0.57958984375
339.982,-0.6943359375
339.992,-0.74658203125
340.002,-0.72509765625
340.012,-0.63427734375
340.022,-0.501953125
340.032,-0.374267578125
340.042,-0.28466796875
340.052,-0.258544921875
340.062,-0.306640625
340.072,-0.3974609375
340.08,-0.4814453125
340.09,-0.537109375
340.1,-0.564453125
340.11,-0.560546875
340.12,-0.51416015625
340.13,-0.421142578125
340.14,-0.30078125
340.15,-0.1915283203125
340.16,-0.132080078125
340.17,-0.1407470703125
340.18,-0.1988525390625
340.19,-0.263671875
340.2,-0.310546875
340.21,-0.34765625
340.22,-0.391845703125
340.23,-0.444580078125
340.24,-0.482421875
340.25,-0.478271484375
340.26,-0.436767578125
340.27,-0.390625
340.279,-0.376708984375
340.289,-0.404296875
340.299,-0.45263671875
340.309,-0.50732421875
340.319,-0.57861328125
340.329,-0.6884765625
340.339,-0.84228515625
340.349,-0.99462890625
340.359,-1.0673828125
340.369,-1.021484375
340.379,-0.8876953125
340.389,-0.7412109375
340.399,-0.65087890625
340.409,-0.6328125
340.419,-0.6630859375
340.429,-0.72412109375
340.439,-0.82177734375
340.449,-0.96337890625
340.459,-1.111328125
340.469,-1.19140625
340.473,-0.44384765625
340.483,-0.385498046875
340.493,-0.37744140625
340.503,-0.41259765625
340.513,-0.480712890625
340.523,-0.5517578125
340.533,-0.5810546875
340.543,-0.5458984375
340.553,-0.47314453125
340.563,-0.425537109375
340.573,-0.452392578125
340.583,-0.54443359375
340.593,-0.64453125
340.603,-0.7041015625
340.613,-0.7275390625
340.623,-0.748046875
340.632,-0.76611328125
340.642,-0.74462890625
340.652,-0.65185546875
340.662,-0.505859375
340.672,-0.37451171875
340.682,-0.32958984375
340.692,-0.386962890625
340.702,-0.48876953125
340.712,-0.55224609375
340.722,-0.54052734375
340.732,-0.482177734375
340.742,-0.4365234375
340.752,-0.43798828125
340.762,-0.473876953125
340.772,-0.50927734375
340.782,-0.54052734375
340.792,-0.6064453125
340.802,-0.73388671875
340.812,-0.89794921875
340.822,-1.0244140625
340.83,-1.046875
340.84,-0.97119140625
340.85,-0.85546875
340.86,-0.74658203125
340.87,-0.6513671875
340.88,-0.55078125
340.89,-0.4404296875
340.9,-0.350341796875
340.91,-0.312255859375
340.92,-0.3193359375
340.93,-0.3359375
340.94,-0.335693359375
340.95,-0.322509765625
340.96,-0.32177734375
340.97,-0.351318359375
340.98,-0.402587890625
340.99,-0.44384765625
341,-0.455078125
341.01,-0.461669921875
341.02,-0.51904296875
341.029,-0.662109375
341.039,-0.8583984375
341.049,-1.025390625
341.059,-1.0986328125
341.069,-1.0673828125
341.079,-0.9677734375
341.089,-0.84423828125
341.099,-0.705078125
341.109,-0.5263671875
341.119,-0.308837890625
341.129,-0.10247802734375
341.139,0.0253753662109375
341.149,0.044464111328125
341.159,-0.0182037353515625
341.169,-0.11431884765625
341.179,-0.2144775390625
341.189,-0.326171875
341.199,-0.484130859375
341.209,-0.6982421875
341.219,-0.912109375
341.223,-0.52294921875
341.233,-0.338134765625
341.243,-0.177734375
341.253,-0.0849609375
341.263,-0.1046142578125
341.273,-0.23779296875
341.283,-0.42626953125
341.293,-0.58935546875
341.303,-0.6640625
341.313,-0.640625
341.323,-0.5771484375
341.333,-0.55029296875
341.343,-0.57958984375
341.353,-0.60986328125
341.363,-0.580078125
341.373,-0.489501953125
341.382,-0.380859375
341.392,-0.293212890625
341.402,-0.23291015625
341.412,-0.177978515625
341.422,-0.11602783203125
341.432,-0.0694580078125
341.442,-0.0732421875
341.452,-0.1356201171875
341.462,-0.2249755859375
341.472,-0.29345703125
341.482,-0.322998046875
341.492,-0.338134765625
341.502,-0.372802734375
341.512,-0.438232421875
341.522,-0.509765625
341.532,-0.5498046875
341.542,-0.55029296875
341.552,-0.54443359375
341.562,-0.5595703125
341.572,-0.58349609375
341.58,-0.5703125
341.59,-0.485107421875
341.6,-0.344970703125
341.61,-0.218505859375
341.62,-0.1943359375
341.63,-0.325439453125
341.64,-0.58349609375
341.65,-0.85888671875
341.66,-1.013671875
341.67,-0.974609375
341.68,-0.77685546875
341.69,-0.52685546875
341.7,-0.315673828125
341.71,-0.178955078125
341.72,-0.1180419921875
341.73,-0.1407470703125
341.74,-0.2705078125
341.75,-0.5244140625
341.76,-0.87646484375
341.77,-1.2373046875
341.779,-1.4912109375
341.789,-1.56640625
341.799,-1.4619140625
341.809,-1.236328125
341.819,-0.962890625
341.829,-0.67578125
341.839,-0.369384765625
341.849,-0.051483154296875
341.859,0.21826171875
341.869,0.365478515625
341.879,0.369384765625
341.889,0.275146484375
341.899,0.14013671875
341.909,-0.0122451782226562
341.919,-0.1875
341.929,-0.380126953125
341.939,-0.54833984375
341.949,-0.66015625
341.959,-0.7568359375
341.969,-0.908203125
341.973,-0.67724609375
341.983,-0.35400390625
341.993,-0.1278076171875
342.003,-0.022674560546875
342.013,-0.029022216796875
342.023,-0.1251220703125
342.033,-0.28173828125
342.043,-0.454833984375
342.053,-0.5810546875
342.063,-0.60400390625
342.073,-0.51318359375
342.083,-0.356201171875
342.093,-0.217529296875
342.103,-0.1669921875
342.113,-0.2010498046875
342.123,-0.2685546875
342.132,-0.34033203125
342.142,-0.413330078125
342.152,-0.479248046875
342.162,-0.52783203125
342.172,-0.5576171875
342.182,-0.5654296875
342.192,-0.55029296875
342.202,-0.52392578125
342.212,-0.50048828125
342.222,-0.490966796875
342.232,-0.495849609375
342.242,-0.50634765625
342.252,-0.51513671875
342.262,-0.52001953125
342.272,-0.5166015625
342.282,-0.4853515625
342.292,-0.40283203125
342.302,-0.266357421875
342.312,-0.097900390625
342.322,0.06903076171875
342.33,0.1939697265625
342.34,0.2305908203125
342.35,0.1405029296875
342.36,-0.0765380859375
342.37,-0.37939453125
342.38,-0.7158203125
342.39,-1.03125
342.4,-1.2587890625
342.41,-1.3359375
342.42,-1.24609375
342.43,-1.029296875
342.44,-0.77587890625
342.45,-0.58349609375
342.46,-0.52001953125
342.47,-0.59814453125
342.48,-0.76171875
342.49,-0.90771484375
342.5,-0.9423828125
342.51,-0.83984375
342.52,-0.65625
342.529,-0.487060546875
342.539,-0.408447265625
342.549,-0.44970703125
342.559,-0.57861328125
342.569,-0.70654296875
342.579,-0.74462890625
342.589,-0.66943359375
342.599,-0.5263671875
342.609,-0.391357421875
342.619,-0.32080078125
342.629,-0.326416015625
342.639,-0.38671875
342.649,-0.45703125
342.659,-0.4765625
342.669,-0.400390625
342.679,-0.2327880859375
342.689,-0.03692626953125
342.699,0.10577392578125
342.709,0.1632080078125
342.719,0.1661376953125
342.723,0.045989990234375
342.733,-0.1776123046875
342.743,-0.399658203125
342.753,-0.55517578125
342.763,-0.642578125
342.773,-0.7001953125
342.783,-0.76708984375
342.793,-0.84375
342.803,-0.87451171875
342.813,-0.7890625
342.823,-0.564453125
342.833,-0.255615234375
342.843,0.035552978515625
342.853,0.2144775390625
342.863,0.2410888671875
342.873,0.136474609375
342.882,-0.041778564453125
342.892,-0.23779296875
342.902,-0.428466796875
342.912,-0.62255859375
342.922,-0.82568359375
342.932,-1.013671875
342.942,-1.13671875
342.952,-1.1494140625
342.962,-1.0302734375
342.972,-0.79541015625
342.982,-0.505859375
342.992,-0.2490234375
343.002,-0.09063720703125
343.012,-0.06512451171875
343.022,-0.184814453125
343.032,-0.426513671875
343.042,-0.72314453125
343.052,-0.9736328125
343.062,-1.072265625
343.072,-0.9677734375
343.08,-0.70947265625
343.09,-0.40673828125
343.1,-0.1475830078125
343.11,0.031494140625
343.12,0.132080078125
343.13,0.17626953125
343.14,0.183837890625
343.15,0.152587890625
343.16,0.0638427734375
343.17,-0.09710693359375
343.18,-0.3232421875
343.19,-0.57666015625
343.2,-0.79931640625
343.21,-0.93505859375
343.22,-0.9482421875
343.23,-0.83544921875
343.24,-0.63134765625
343.25,-0.39599609375
343.26,-0.1990966796875
343.27,-0.08935546875
343.279,-0.06591796875
343.289,-0.08721923828125
343.299,-0.0936279296875
343.309,-0.063232421875
343.319,-0.04388427734375
343.329,-0.074462890625
343.339,-0.1348876953125
343.349,-0.19482421875
343.359,-0.251220703125
343.369,-0.3193359375
343.379,-0.39990234375
343.389,-0.477783203125
343.399,-0.5322265625
343.409,-0.53271484375
343.419,-0.473388671875
343.429,-0.393310546875
343.439,-0.332763671875
343.449,-0.308837890625
343.459,-0.32470703125
343.469,-0.3740234375
343.473,-1.328125
343.483,-1.3779296875
343.493,-1.244140625
343.503,-0.95751953125
343.513,-0.6220703125
343.523,-0.36669921875
343.533,-0.27783203125
343.543,-0.365966796875
343.553,-0.55615234375
343.563,-0.7392578125
343.573,-0.82421875
343.583,-0.7724609375
343.593,-0.619140625
343.603,-0.45458984375
343.613,-0.35546875
343.623,-0.32861328125
343.632,-0.320556640625
343.642,-0.283447265625
343.652,-0.2130126953125
343.662,-0.14892578125
343.672,-0.1448974609375
343.682,-0.218994140625
343.692,-0.33984375
343.702,-0.451904296875
343.712,-0.501953125
343.722,-0.47412109375
343.732,-0.40234375
343.742,-0.33935546875
343.752,-0.3193359375
343.762,-0.343994140625
343.772,-0.383544921875
343.782,-0.396728515625
343.792,-0.369140625
343.802,-0.332275390625
343.812,-0.325439453125
343.822,-0.354736328125
343.83,-0.400390625
343.84,-0.42626953125
343.85,-0.3916015625
343.86,-0.2919921875
343.87,-0.1641845703125
343.88,-0.0487060546875
343.89,0.0193328857421875
343.9,0.0150527954101562
343.91,-0.0687255859375
343.92,-0.2293701171875
343.93,-0.4482421875
343.94,-0.6943359375
343.95,-0.93017578125
343.96,-1.083984375
343.97,-1.0830078125
343.98,-0.91748046875
343.99,-0.64892578125
344,-0.375244140625
344.01,-0.178955078125
344.02,-0.09698486328125
344.029,-0.11468505859375
344.039,-0.1888427734375
344.049,-0.28076171875
344.059,-0.35986328125
344.069,-0.406005859375
344.079,-0.40771484375
344.089,-0.35693359375
344.099,-0.279541015625
344.109,-0.2344970703125
344.119,-0.26171875
344.129,-0.361083984375
344.139,-0.4921875
344.149,-0.60205078125
344.159,-0.662109375
344.169,-0.67431640625
344.179,-0.654296875
344.189,-0.61279296875
344.199,-0.53564453125
344.209,-0.415283203125
344.219,-0.26806640625
344.223,0.06298828125
344.233,-0.07452392578125
344.243,-0.28955078125
344.253,-0.5751953125
344.263,-0.89453125
344.273,-1.1728515625
344.283,-1.3310546875
344.293,-1.3232421875
344.303,-1.16796875
344.313,-0.91796875
344.323,-0.6279296875
344.333,-0.35986328125
344.343,-0.1761474609375
344.353,-0.11907958984375
344.363,-0.18408203125
344.373,-0.32177734375
344.381,-0.4619140625
344.391,-0.55029296875
344.401,-0.5908203125
344.411,-0.630859375
344.421,-0.6904296875
344.431,-0.72900390625
344.441,-0.68896484375
344.451,-0.5625
344.461,-0.40283203125
344.471,-0.28515625
344.481,-0.23876953125
344.491,-0.23828125
344.501,-0.255859375
344.511,-0.28759765625
344.521,-0.343017578125
344.531,-0.42236328125
344.541,-0.49609375
344.551,-0.52197265625
344.561,-0.483154296875
344.571,-0.40576171875
344.58,-0.337890625
344.59,-0.3173828125
344.6,-0.349609375
344.61,-0.417236328125
344.62,-0.50390625
344.63,-0.6005859375
344.64,-0.70263671875
344.65,-0.78173828125
344.66,-0.779296875
344.67,-0.6689453125
344.68,-0.487060546875
344.69,-0.305419921875
344.7,-0.2000732421875
344.71,-0.2020263671875
344.72,-0.289306640625
344.73,-0.412841796875
344.74,-0.5234375
344.75,-0.603515625
344.76,-0.65673828125
344.77,-0.66845703125
344.779,-0.61083984375
344.789,-0.5
344.799,-0.406982421875
344.809,-0.39990234375
344.819,-0.49267578125
344.829,-0.64306640625
344.839,-0.7841796875
344.849,-0.8701171875
344.859,-0.9013671875
344.869,-0.89306640625
344.879,-0.849609375
344.889,-0.7587890625
344.899,-0.625
344.909,-0.4921875
344.919,-0.41796875
344.929,-0.427978515625
344.939,-0.4990234375
344.949,-0.57763671875
344.959,-0.61865234375
344.969,-0.623046875
344.973,-0.79345703125
344.983,-0.78076171875
344.993,-0.8037109375
345.003,-0.876953125
345.013,-0.95703125
345.023,-0.974609375
345.033,-0.900390625
345.043,-0.767578125
345.053,-0.6455078125
345.063,-0.5830078125
345.073,-0.572265625
345.083,-0.5712890625
345.093,-0.55810546875
345.103,-0.5537109375
345.113,-0.5869140625
345.123,-0.64892578125
345.131,-0.69140625
345.141,-0.66162109375
345.151,-0.54736328125
345.161,-0.404052734375
345.171,-0.31591796875
345.181,-0.31884765625
345.191,-0.374755859375
345.201,-0.423583984375
345.211,-0.44873046875
345.221,-0.48046875
345.231,-0.5458984375
345.241,-0.62548828125
345.251,-0.66015625
345.261,-0.60986328125
345.271,-0.49560546875
345.281,-0.36474609375
345.291,-0.2481689453125
345.301,-0.1566162109375
345.311,-0.09771728515625
345.321,-0.0882568359375
345.33,-0.149658203125
345.34,-0.280029296875
345.35,-0.434814453125
345.36,-0.5439453125
345.37,-0.564453125
345.38,-0.51123046875
345.39,-0.43505859375
345.4,-0.3759765625
345.41,-0.337158203125
345.42,-0.2939453125
345.43,-0.2476806640625
345.44,-0.255126953125
345.45,-0.3818359375
345.46,-0.6376953125
345.47,-0.955078125
345.48,-1.2109375
345.49,-1.2861328125
345.5,-1.134765625
345.51,-0.810546875
345.52,-0.43212890625
345.529,-0.1251220703125
345.539,0.02789306640625
345.549,0.00574111938476562
345.559,-0.1512451171875
345.569,-0.374755859375
345.579,-0.607421875
345.589,-0.81689453125
345.599,-0.98828125
345.609,-1.109375
345.619,-1.1669921875
345.629,-1.16796875
345.639,-1.142578125
345.649,-1.12890625
345.659,-1.146484375
345.669,-1.1748046875
345.679,-1.17578125
345.689,-1.12890625
345.699,-1.05859375
345.709,-1.0068359375
345.719,-1.009765625
345.723,-1.0830078125
345.733,-1.0458984375
345.743,-1.044921875
345.753,-1.064453125
345.763,-1.0810546875
345.773,-1.087890625
345.783,-1.09375
345.793,-1.1044921875
345.803,-1.1123046875
345.813,-1.0986328125
345.823,-1.056640625
345.833,-0.9990234375
345.843,-0.9453125
345.853,-0.9052734375
345.863,-0.8779296875
345.873,-0.86279296875
345.881,-0.859375
345.891,-0.86181640625
345.901,-0.859375
345.911,-0.8505859375
345.921,-0.8427734375
345.931,-0.84423828125
345.941,-0.86083984375
345.951,-0.88916015625
345.961,-0.92333984375
345.971,-0.9658203125
345.981,-1.021484375
345.991,-1.083984375
346.001,-1.138671875
346.011,-1.171875
346.021,-1.177734375
346.031,-1.15625
346.041,-1.1162109375
346.051,-1.0693359375
346.061,-1.029296875
346.071,-1.0009765625
346.08,-0.99072265625
346.09,-1.001953125
346.1,-1.0283203125
346.11,-1.05078125
346.12,-1.052734375
346.13,-1.0283203125
346.14,-0.986328125
346.15,-0.94091796875
346.16,-0.8994140625
346.17,-0.86572265625
346.18,-0.8447265625
346.19,-0.84228515625
346.2,-0.85498046875
346.21,-0.8701171875
346.22,-0.87841796875
346.23,-0.880859375
346.24,-0.87890625
346.25,-0.87646484375
346.26,-0.87548828125
346.27,-0.87646484375
346.279,-0.88134765625
346.289,-0.8896484375
346.299,-0.8955078125
346.309,-0.890625
346.319,-0.87451171875
346.329,-0.85107421875
346.339,-0.82373046875
346.349,-0.798828125
346.359,-0.7841796875
346.369,-0.78466796875
346.379,-0.80517578125
346.389,-0.84619140625
346.399,-0.90087890625
346.409,-0.95751953125
346.419,-0.99951171875
346.429,-1.0087890625
346.439,-0.9814453125
346.449,-0.92041015625
346.459,-0.83203125
346.469,-0.73046875
346.473,-0.446044921875
346.483,-0.481201171875
346.493,-0.53662109375
346.503,-0.60302734375
346.513,-0.67236328125
346.523,-0.736328125
346.533,-0.78857421875
346.543,-0.81787109375
346.553,-0.8203125
346.563,-0.80224609375
346.573,-0.7744140625
346.583,-0.7421875
346.593,-0.712890625
346.603,-0.6962890625
346.613,-0.70166015625
346.623,-0.72509765625
346.631,-0.75390625
346.641,-0.77197265625
346.651,-0.77099609375
346.661,-0.75634765625
346.671,-0.7314453125
346.681,-0.693359375
346.691,-0.64501953125
346.701,-0.599609375
346.711,-0.57666015625
346.721,-0.5888671875
346.731,-0.6298828125
346.741,-0.67919921875
346.751,-0.7158203125
346.761,-0.72998046875
346.771,-0.7236328125
346.781,-0.7080078125
346.791,-0.69140625
346.801,-0.6767578125
346.811,-0.6669921875
346.821,-0.66455078125
346.83,-0.6640625
346.84,-0.658203125
346.85,-0.6416015625
346.86,-0.6142578125
346.87,-0.578125
346.88,-0.541015625
346.89,-0.51171875
346.9,-0.492919921875
346.91,-0.4775390625
346.92,-0.454833984375
346.93,-0.419921875
346.94,-0.37939453125
346.95,-0.350830078125
346.96,-0.358154296875
346.97,-0.41748046875
346.98,-0.52490234375
346.99,-0.6572265625
347,-0.77685546875
347.01,-0.84716796875
347.02,-0.853515625
347.029,-0.8076171875
347.039,-0.73193359375
347.049,-0.64306640625
347.059,-0.55029296875
347.069,-0.46533203125
347.079,-0.401611328125
347.089,-0.366943359375
347.099,-0.36474609375
347.109,-0.396240234375
347.119,-0.457275390625
347.129,-0.5302734375
347.139,-0.5888671875
347.149,-0.61328125
347.159,-0.59814453125
347.169,-0.5498046875
347.179,-0.481689453125
347.189,-0.4130859375
347.199,-0.364013671875
347.209,-0.3486328125
347.219,-0.37255859375
347.223,-0.90087890625
347.233,-0.96240234375
347.243,-0.9609375
347.253,-0.8916015625
347.263,-0.76416015625
347.273,-0.6064453125
347.283,-0.452880859375
347.293,-0.332763671875
347.303,-0.264404296875
347.313,-0.2548828125
347.323,-0.30224609375
347.333,-0.391845703125
347.343,-0.4990234375
347.353,-0.60400390625
347.363,-0.693359375
347.373,-0.74853515625
347.381,-0.75146484375
347.391,-0.69873046875
347.401,-0.60498046875
347.411,-0.493896484375
347.421,-0.386962890625
347.431,-0.29833984375
347.441,-0.23486328125
347.451,-0.19970703125
347.461,-0.193603515625
347.471,-0.2197265625
347.481,-0.280517578125
347.491,-0.372314453125
347.501,-0.484619140625
347.511,-0.60107421875
347.521,-0.69580078125
347.531,-0.7431640625
347.541,-0.73388671875
347.551,-0.67236328125
347.561,-0.578125
347.571,-0.488037109375
347.58,-0.44482421875
347.59,-0.4755859375
347.6,-0.57666015625
347.61,-0.70947265625
347.62,-0.8203125
347.63,-0.869140625
347.64,-0.8427734375
347.65,-0.74658203125
347.66,-0.6015625
347.67,-0.4375
347.68,-0.293212890625
347.69,-0.2088623046875
347.7,-0.201171875
347.71,-0.259033203125
347.72,-0.36083984375
347.73,-0.485595703125
347.74,-0.6181640625
347.75,-0.736328125
347.76,-0.80859375
347.77,-0.8134765625
347.779,-0.74853515625
347.789,-0.62451171875
347.799,-0.46533203125
347.809,-0.298828125
347.819,-0.158447265625
347.829,-0.0760498046875
347.839,-0.071533203125
347.849,-0.14306640625
347.859,-0.257568359375
347.869,-0.36376953125
347.879,-0.417236328125
347.889,-0.394775390625
347.899,-0.3076171875
347.909,-0.1905517578125
347.919,-0.08099365234375
347.929,-0.0107955932617188
347.939,0.00418853759765625
347.949,-0.03021240234375
347.959,-0.09930419921875
347.969,-0.1842041015625
347.973,-0.1474609375
347.983,-0.059783935546875
347.993,0.01922607421875
348.003,0.07391357421875
348.013,0.103759765625
348.023,0.1126708984375
348.033,0.107666015625
348.043,0.1021728515625
348.053,0.10406494140625
348.063,0.1065673828125
348.073,0.0985107421875
348.083,0.07489013671875
348.093,0.03485107421875
348.103,-0.0218048095703125
348.113,-0.08685302734375
348.123,-0.140625
348.131,-0.1666259765625
348.141,-0.1610107421875
348.151,-0.125
348.161,-0.063232421875
348.171,0.0106964111328125
348.181,0.07745361328125
348.191,0.11962890625
348.201,0.12481689453125
348.211,0.085205078125
348.221,0.00445175170898438
348.231,-0.095703125
348.241,-0.1845703125
348.251,-0.239501953125
348.261,-0.25244140625
348.271,-0.224609375
348.281,-0.16357421875
348.291,-0.08477783203125
348.301,-0.00542831420898438
348.311,0.062469482421875
348.321,0.1121826171875
348.33,0.1378173828125
348.34,0.132568359375
348.35,0.0968017578125
348.36,0.04461669921875
348.37,-0.00670242309570312
348.38,-0.04742431640625
348.39,-0.06878662109375
348.4,-0.0592041015625
348.41,-0.0157623291015625
348.42,0.04840087890625
348.43,0.11016845703125
348.44,0.1483154296875
348.45,0.15087890625
348.46,0.11456298828125
348.47,0.041259765625
348.48,-0.06121826171875
348.49,-0.172119140625
348.5,-0.2587890625
348.51,-0.295166015625
348.52,-0.274658203125
348.529,-0.2119140625
348.539,-0.1341552734375
348.549,-0.07086181640625
348.559,-0.03839111328125
348.569,-0.034881591796875
348.579,-0.046875
348.589,-0.05938720703125
348.599,-0.06494140625
348.609,-0.06536865234375
348.619,-0.0672607421875
348.629,-0.078857421875
348.639,-0.1075439453125
348.649,-0.1546630859375
348.659,-0.2127685546875
348.669,-0.26708984375
348.679,-0.298828125
348.689,-0.291259765625
348.699,-0.2452392578125
348.709,-0.181884765625
348.719,-0.125244140625
348.722,-0.020263671875
348.732,-0.028228759765625
348.742,-0.04150390625
348.752,-0.064453125
348.762,-0.100830078125
348.772,-0.1427001953125
348.782,-0.1759033203125
348.792,-0.1856689453125
348.802,-0.1627197265625
348.812,-0.11322021484375
348.822,-0.0556640625
348.832,-0.0067596435546875
348.842,0.0274658203125
348.852,0.046417236328125
348.862,0.04998779296875
348.872,0.042388916015625
348.881,0.034454345703125
348.891,0.03466796875
348.901,0.0413818359375
348.911,0.046478271484375
348.921,0.0447998046875
348.931,0.04150390625
348.941,0.046142578125
348.951,0.05999755859375
348.961,0.07470703125
348.971,0.07989501953125
348.981,0.0699462890625
348.991,0.0439453125
349.001,0.0052490234375
349.011,-0.03802490234375
349.021,-0.0777587890625
349.031,-0.10595703125
349.041,-0.11083984375
349.051,-0.086669921875
349.061,-0.04315185546875
349.071,-0.00133895874023438
349.08,0.0185546875
349.09,0.0126495361328125
349.1,-0.00385665893554688
349.11,-0.0147018432617188
349.12,-0.0168304443359375
349.13,-0.0166015625
349.14,-0.0215301513671875
349.15,-0.03558349609375
349.16,-0.055694580078125
349.17,-0.072021484375
349.18,-0.075439453125
349.19,-0.06573486328125
349.2,-0.049713134765625
349.21,-0.03448486328125
349.22,-0.0252685546875
349.23,-0.0261688232421875
349.24,-0.037353515625
349.25,-0.055877685546875
349.26,-0.078125
349.27,-0.09649658203125
349.274,-0.0546875
349.284,-0.055267333984375
349.294,-0.05517578125
349.304,-0.055419921875
349.314,-0.059051513671875
349.324,-0.07379150390625
349.334,-0.10211181640625
349.344,-0.1346435546875
349.354,-0.1619873046875
349.364,-0.178466796875
349.374,-0.1754150390625
349.384,-0.1488037109375
349.394,-0.10791015625
349.404,-0.064697265625
349.414,-0.0243377685546875
349.424,0.00997161865234375
349.432,0.031005859375
349.442,0.0325927734375
349.452,0.0116424560546875
349.462,-0.032684326171875
349.472,-0.0958251953125
349.482,-0.166748046875
349.492,-0.23046875
349.502,-0.269287109375
349.512,-0.268798828125
349.522,-0.2288818359375
349.532,-0.158935546875
349.542,-0.066650390625
349.552,0.035736083984375
349.562,0.1217041015625
349.572,0.1624755859375
349.582,0.1451416015625
349.592,0.07757568359375
349.602,-0.018585205078125
349.612,-0.120361328125
349.622,-0.208740234375
349.631,-0.26806640625
349.641,-0.290771484375
349.651,-0.27880859375
349.661,-0.239013671875
349.671,-0.179931640625
349.681,-0.1109619140625
349.691,-0.04156494140625
349.701,0.0140609741210938
349.711,0.039886474609375
349.721,0.0283355712890625
349.731,-0.0191497802734375
349.741,-0.09423828125
349.751,-0.1768798828125
349.761,-0.236328125
349.771,-0.246826171875
349.781,-0.20166015625
349.791,-0.109375
349.801,0.0100250244140625
349.811,0.12274169921875
349.821,0.19287109375
349.83,0.198486328125
349.84,0.1368408203125
349.85,0.02532958984375
349.86,-0.10504150390625
349.87,-0.2286376953125
349.88,-0.33154296875
349.89,-0.40576171875
349.9,-0.4482421875
349.91,-0.453125
349.92,-0.40478515625
349.93,-0.29736328125
349.94,-0.153076171875
349.95,-0.01116943359375
349.96,0.09515380859375
349.97,0.1414794921875
349.98,0.1148681640625
349.99,0.028594970703125
350,-0.08087158203125
350.01,-0.1849365234375
350.02,-0.274658203125
350.025,-0.32470703125
350.035,-0.258544921875
350.045,-0.1575927734375
350.055,-0.044342041015625
350.065,0.05047607421875
350.075,0.1138916015625
350.085,0.1495361328125
350.095,0.1610107421875
350.105,0.150634765625
350.115,0.1319580078125
350.125,0.1201171875
350.135,0.10406494140625
350.145,0.053741455078125
350.155,-0.035797119140625
350.165,-0.1353759765625
350.175,-0.219482421875
350.182,-0.282958984375
350.192,-0.3251953125
350.202,-0.337158203125
350.212,-0.3056640625
350.222,-0.2314453125
350.232,-0.1419677734375
350.242,-0.07421875
350.252,-0.04180908203125
350.262,-0.03790283203125
350.272,-0.061187744140625
350.282,-0.11273193359375
350.292,-0.174072265625
350.302,-0.2138671875
350.312,-0.2115478515625
350.322,-0.16748046875
350.332,-0.104736328125
350.342,-0.058502197265625
350.352,-0.050506591796875
350.362,-0.077392578125
350.372,-0.12646484375
350.381,-0.1815185546875
350.391,-0.2174072265625
350.401,-0.21728515625
350.411,-0.189208984375
350.421,-0.1558837890625
350.431,-0.1383056640625
350.441,-0.14208984375
350.451,-0.1529541015625
350.461,-0.156494140625
350.471,-0.15625
350.481,-0.1629638671875
350.491,-0.1795654296875
350.501,-0.1990966796875
350.511,-0.2113037109375
350.521,-0.2109375
350.531,-0.2076416015625
350.541,-0.2154541015625
350.551,-0.2335205078125
350.561,-0.2493896484375
350.571,-0.25390625
350.58,-0.24560546875
350.59,-0.23193359375
350.6,-0.225341796875
350.61,-0.2308349609375
350.62,-0.2413330078125
350.63,-0.2442626953125
350.64,-0.230712890625
350.65,-0.2008056640625
350.66,-0.1650390625
350.67,-0.1370849609375
350.68,-0.127685546875
350.69,-0.140380859375
350.7,-0.1685791015625
350.71,-0.197509765625
350.72,-0.2137451171875
350.73,-0.215576171875
350.74,-0.2120361328125
350.75,-0.214111328125
350.76,-0.2291259765625
350.77,-0.2587890625
350.774,-0.235595703125
350.784,-0.1484375
350.794,-0.06756591796875
350.804,-0.0210723876953125
350.814,-0.03240966796875
350.824,-0.10528564453125
350.834,-0.219482421875
350.844,-0.34375
350.854,-0.44677734375
350.864,-0.50244140625
350.874,-0.501953125
350.884,-0.454345703125
350.894,-0.37646484375
350.904,-0.292724609375
350.914,-0.22314453125
350.924,-0.177978515625
350.932,-0.1610107421875
350.942,-0.1666259765625
350.952,-0.177001953125
350.962,-0.1739501953125
350.972,-0.1480712890625
350.982,-0.1004638671875
350.992,-0.047882080078125
351.002,-0.017669677734375
351.012,-0.03094482421875
351.022,-0.0916748046875
351.032,-0.184814453125
351.042,-0.28369140625
351.052,-0.36376953125
351.062,-0.4052734375
351.072,-0.39208984375
351.082,-0.32373046875
351.092,-0.2191162109375
351.102,-0.1051025390625
351.112,-0.01568603515625
351.122,0.0131607055664062
351.131,-0.035797119140625
351.141,-0.149658203125
351.151,-0.292724609375
351.161,-0.420166015625
351.171,-0.49609375
351.181,-0.50439453125
351.191,-0.446044921875
351.201,-0.3447265625
351.211,-0.2392578125
351.221,-0.1629638671875
351.231,-0.1331787109375
351.241,-0.1534423828125
351.251,-0.2139892578125
351.261,-0.295166015625
351.271,-0.375732421875
351.281,-0.43359375
351.291,-0.4521484375
351.301,-0.4287109375
351.311,-0.3779296875
351.321,-0.33251953125
351.33,-0.33642578125
351.34,-0.414794921875
351.35,-0.5546875
351.36,-0.7216796875
351.37,-0.88623046875
351.38,-1.0341796875
351.39,-1.1552734375
351.4,-1.2265625
351.41,-1.228515625
351.42,-1.177734375
351.43,-1.1064453125
351.44,-1.03515625
351.45,-0.9697265625
351.46,-0.91650390625
351.47,-0.89013671875
351.48,-0.89306640625
351.49,-0.91357421875
351.5,-0.93994140625
351.51,-0.958984375
351.52,-0.96337890625
351.524,-1.0810546875
351.534,-1.1318359375
351.544,-1.1650390625
351.554,-1.169921875
351.564,-1.146484375
351.574,-1.10546875
351.584,-1.0634765625
351.594,-1.02734375
351.604,-0.9990234375
351.614,-0.98046875
351.624,-0.97607421875
351.634,-0.98095703125
351.644,-0.986328125
351.654,-0.98095703125
351.664,-0.95703125
351.674,-0.912109375
351.682,-0.8515625
351.692,-0.78662109375
351.702,-0.73388671875
351.712,-0.701171875
351.722,-0.68798828125
351.732,-0.69580078125
351.742,-0.72705078125
351.752,-0.7822265625
351.762,-0.85205078125
351.772,-0.9228515625
351.782,-0.97802734375
351.792,-1.0087890625
351.802,-1.0126953125
351.812,-0.99462890625
351.822,-0.96240234375
351.832,-0.9228515625
351.842,-0.8818359375
351.852,-0.84716796875
351.862,-0.82861328125
351.872,-0.82666015625
351.881,-0.83642578125
351.891,-0.8544921875
351.901,-0.87646484375
351.911,-0.89013671875
351.921,-0.88232421875
351.931,-0.85205078125
351.941,-0.806640625
351.951,-0.75732421875
351.961,-0.71533203125
351.971,-0.689453125
351.981,-0.6865234375
351.991,-0.70556640625
352.001,-0.7392578125
352.011,-0.7783203125
352.021,-0.81103515625
352.031,-0.82861328125
352.041,-0.83349609375
352.051,-0.83642578125
352.061,-0.83935546875
352.071,-0.83642578125
352.08,-0.82958984375
352.09,-0.81982421875
352.1,-0.7958984375
352.11,-0.75341796875
352.12,-0.70263671875
352.13,-0.65771484375
352.14,-0.6240234375
352.15,-0.60498046875
352.16,-0.60205078125
352.17,-0.61328125
352.18,-0.63330078125
352.19,-0.65478515625
352.2,-0.66845703125
352.21,-0.66943359375
352.22,-0.658203125
352.23,-0.63232421875
352.24,-0.58154296875
352.25,-0.5048828125
352.26,-0.4169921875
352.27,-0.343017578125
352.275,-0.59619140625
352.285,-0.66162109375
352.295,-0.67822265625
352.305,-0.64990234375
352.315,-0.59033203125
352.325,-0.51513671875
352.335,-0.440673828125
352.345,-0.380126953125
352.355,-0.337158203125
352.365,-0.314453125
352.375,-0.318359375
352.385,-0.346435546875
352.395,-0.384765625
352.405,-0.417236328125
352.415,-0.43359375
352.425,-0.43359375
352.432,-0.418701171875
352.442,-0.383544921875
352.452,-0.322509765625
352.462,-0.2349853515625
352.472,-0.1258544921875
352.482,-0.0116500854492188
352.492,0.08282470703125
352.502,0.1387939453125
352.512,0.1527099609375
352.522,0.1307373046875
352.532,0.08026123046875
352.542,0.0102462768554688
352.552,-0.0657958984375
352.562,-0.130615234375
352.572,-0.16748046875
352.582,-0.1658935546875
352.592,-0.127197265625
352.602,-0.06475830078125
352.612,0.005035400390625
352.622,0.06671142578125
352.631,0.1029052734375
352.641,0.098388671875
352.651,0.045989990234375
352.661,-0.04754638671875
352.671,-0.1607666015625
352.681,-0.265380859375
352.691,-0.33154296875
352.701,-0.33837890625
352.711,-0.28271484375
352.721,-0.177734375
352.731,-0.050445556640625
352.741,0.06298828125
352.751,0.13134765625
352.761,0.1458740234375
352.771,0.1219482421875
352.781,0.08184814453125
352.791,0.042694091796875
352.801,0.0128936767578125
352.811,-0.00876617431640625
352.821,-0.0257568359375
352.83,-0.038299560546875
352.84,-0.045318603515625
352.85,-0.04827880859375
352.86,-0.05743408203125
352.87,-0.08740234375
352.88,-0.1400146484375
352.89,-0.1982421875
352.9,-0.23583984375
352.91,-0.231201171875
352.92,-0.1749267578125
352.93,-0.069091796875
352.94,0.064453125
352.95,0.188232421875
352.96,0.2734375
352.97,0.304443359375
352.98,0.278564453125
352.99,0.21142578125
353,0.1270751953125
353.01,0.044158935546875
353.02,-0.031524658203125
353.023,-0.2091064453125
353.033,-0.271484375
353.043,-0.3662109375
353.053,-0.459228515625
353.063,-0.5048828125
353.073,-0.46435546875
353.083,-0.333984375
353.093,-0.142333984375
353.103,0.06805419921875
353.113,0.251953125
353.123,0.375
353.133,0.421630859375
353.143,0.3896484375
353.153,0.280517578125
353.163,0.11541748046875
353.173,-0.0643310546875
353.182,-0.2266845703125
353.192,-0.357177734375
353.202,-0.438232421875
353.212,-0.453369140625
353.222,-0.4072265625
353.232,-0.320556640625
353.242,-0.21240234375
353.252,-0.0958251953125
353.262,0.0151443481445312
353.272,0.1024169921875
353.282,0.1558837890625
353.292,0.1817626953125
353.302,0.1846923828125
353.312,0.1563720703125
353.322,0.091064453125
353.332,-0.00683212280273438
353.342,-0.12451171875
353.352,-0.239013671875
353.362,-0.32861328125
353.372,-0.391845703125
353.381,-0.439697265625
353.391,-0.477783203125
353.401,-0.50244140625
353.411,-0.5048828125
353.421,-0.4736328125
353.431,-0.3974609375
353.441,-0.27294921875
353.451,-0.110107421875
353.461,0.06756591796875
353.471,0.2230224609375
353.481,0.31982421875
353.491,0.34619140625
353.501,0.3154296875
353.511,0.24560546875
353.521,0.14794921875
353.531,0.02801513671875
353.541,-0.1053466796875
353.551,-0.2386474609375
353.561,-0.356689453125
353.571,-0.436279296875
353.579,-0.44775390625
353.589,-0.3740234375
353.599,-0.2271728515625
353.609,-0.042205810546875
353.619,0.1392822265625
353.629,0.28173828125
353.639,0.3544921875
353.649,0.34326171875
353.659,0.257080078125
353.669,0.1212158203125
353.679,-0.0272369384765625
353.689,-0.1455078125
353.699,-0.2091064453125
353.709,-0.2158203125
353.719,-0.16796875
353.729,-0.072021484375
353.739,0.050323486328125
353.749,0.16748046875
353.759,0.252685546875
353.769,0.28955078125
353.773,-0.1148681640625
353.783,-0.197021484375
353.793,-0.23486328125
353.803,-0.21826171875
353.813,-0.1552734375
353.823,-0.059844970703125
353.833,0.05078125
353.843,0.1458740234375
353.853,0.1973876953125
353.863,0.2010498046875
353.873,0.168212890625
353.883,0.11151123046875
353.893,0.048309326171875
353.903,-0.00455474853515625
353.913,-0.046417236328125
353.923,-0.082275390625
353.932,-0.10626220703125
353.942,-0.1129150390625
353.952,-0.10382080078125
353.962,-0.0789794921875
353.972,-0.042999267578125
353.982,-0.0145645141601562
353.992,-0.0117416381835938
354.002,-0.03704833984375
354.012,-0.08154296875
354.022,-0.129150390625
354.032,-0.15869140625
354.042,-0.156494140625
354.052,-0.1258544921875
354.062,-0.076171875
354.072,-0.0161895751953125
354.082,0.03680419921875
354.092,0.061859130859375
354.102,0.052764892578125
354.112,0.01617431640625
354.122,-0.036163330078125
354.131,-0.0889892578125
354.141,-0.1475830078125
354.151,-0.2430419921875
354.161,-0.385986328125
354.171,-0.52734375
354.181,-0.5751953125
354.191,-0.471923828125
354.201,-0.251953125
354.211,0.0099334716796875
354.221,0.24169921875
354.231,0.371337890625
354.241,0.358154296875
354.251,0.217041015625
354.261,-0.00389671325683594
354.271,-0.251220703125
354.281,-0.52099609375
354.291,-0.8515625
354.301,-1.2099609375
354.311,-1.4853515625
354.321,-1.623046875
354.329,-1.6298828125
354.339,-1.4970703125
354.349,-1.21875
354.359,-0.833984375
354.369,-0.4228515625
354.379,-0.08734130859375
354.389,0.059112548828125
354.399,-0.049530029296875
354.409,-0.3447265625
354.419,-0.65283203125
354.429,-0.8232421875
354.439,-0.78857421875
354.449,-0.55615234375
354.459,-0.2021484375
354.469,0.148193359375
354.479,0.3974609375
354.489,0.52197265625
354.499,0.53515625
354.509,0.464111328125
354.519,0.362548828125
354.523,-0.08734130859375
354.533,-0.2401123046875
354.543,-0.415283203125
354.553,-0.5986328125
354.563,-0.76220703125
354.573,-0.865234375
354.583,-0.84521484375
354.593,-0.66064453125
354.603,-0.35302734375
354.613,-0.04083251953125
354.623,0.133056640625
354.633,0.0888671875
354.643,-0.11614990234375
354.653,-0.328369140625
354.663,-0.425537109375
354.673,-0.390380859375
354.682,-0.294677734375
354.692,-0.22314453125
354.702,-0.193359375
354.712,-0.161865234375
354.722,-0.09442138671875
354.732,0.00026702880859375
354.742,0.09234619140625
354.752,0.1558837890625
354.762,0.1806640625
354.772,0.1702880859375
354.782,0.1265869140625
354.792,0.04803466796875
354.802,-0.05426025390625
354.812,-0.15185546875
354.822,-0.2169189453125
354.832,-0.2462158203125
354.842,-0.259521484375
354.852,-0.27197265625
354.862,-0.280029296875
354.872,-0.2666015625
354.881,-0.2235107421875
354.891,-0.16357421875
354.901,-0.10595703125
354.911,-0.05755615234375
354.921,-0.0220184326171875
354.931,-0.009613037109375
354.941,-0.03607177734375
354.951,-0.104736328125
354.961,-0.191650390625
354.971,-0.2578125
354.981,-0.275146484375
354.991,-0.24462890625
355.001,-0.194580078125
355.011,-0.1568603515625
355.021,-0.14306640625
355.031,-0.14306640625
355.041,-0.14208984375
355.051,-0.1380615234375
355.061,-0.14501953125
355.071,-0.178466796875
355.079,-0.2335205078125
355.089,-0.284912109375
355.099,-0.30908203125
355.109,-0.301025390625
355.119,-0.275146484375
355.129,-0.256591796875
355.139,-0.2587890625
355.149,-0.26953125
355.159,-0.264892578125
355.169,-0.232177734375
355.179,-0.1817626953125
355.189,-0.142333984375
355.199,-0.1431884765625
355.209,-0.1883544921875
355.219,-0.24951171875
355.229,-0.285400390625
355.239,-0.269775390625
355.249,-0.2073974609375
355.259,-0.134033203125
355.269,-0.092041015625
355.273,-0.163330078125
355.283,-0.11724853515625
355.293,-0.0828857421875
355.303,-0.08544921875
355.313,-0.133056640625
355.323,-0.2113037109375
355.333,-0.286865234375
355.343,-0.322265625
355.353,-0.2958984375
355.363,-0.2152099609375
355.373,-0.11639404296875
355.383,-0.045867919921875
355.393,-0.035430908203125
355.403,-0.0882568359375
355.413,-0.1800537109375
355.423,-0.268310546875
355.432,-0.3115234375
355.442,-0.287841796875
355.452,-0.1998291015625
355.462,-0.07354736328125
355.472,0.047332763671875
355.482,0.12469482421875
355.492,0.138916015625
355.502,0.0841064453125
355.512,-0.02679443359375
355.522,-0.1641845703125
355.532,-0.2998046875
355.542,-0.412109375
355.552,-0.479248046875
355.562,-0.487060546875
355.572,-0.43408203125
355.582,-0.330078125
355.592,-0.1990966796875
355.602,-0.0765380859375
355.612,0.0096893310546875
355.622,0.043365478515625
355.631,0.0179595947265625
355.641,-0.056732177734375
355.651,-0.1644287109375
355.661,-0.29150390625
355.671,-0.416259765625
355.681,-0.51416015625
355.691,-0.568359375
355.701,-0.56787109375
355.711,-0.51025390625
355.721,-0.410400390625
355.731,-0.287353515625
355.741,-0.15966796875
355.751,-0.044158935546875
355.761,0.0478515625
355.771,0.11041259765625
355.781,0.137939453125
355.791,0.1285400390625
355.801,0.087646484375
355.811,0.0224609375
355.821,-0.0621337890625
355.829,-0.1612548828125
355.839,-0.26806640625
355.849,-0.3701171875
355.859,-0.4521484375
355.869,-0.50537109375
355.879,-0.53125
355.889,-0.53564453125
355.899,-0.5283203125
355.909,-0.5107421875
355.919,-0.4794921875
355.929,-0.433837890625
355.939,-0.375
355.949,-0.303466796875
355.959,-0.2252197265625
355.969,-0.1435546875
355.979,-0.059661865234375
355.989,0.0223388671875
355.999,0.0992431640625
356.009,0.1689453125
356.019,0.2237548828125
356.023,0.0982666015625
356.033,0.018951416015625
356.043,-0.0509033203125
356.053,-0.0989990234375
356.063,-0.122314453125
356.073,-0.12548828125
356.083,-0.1119384765625
356.093,-0.0860595703125
356.103,-0.057769775390625
356.113,-0.036865234375
356.123,-0.027252197265625
356.133,-0.029083251953125
356.143,-0.041259765625
356.153,-0.06085205078125
356.163,-0.0828857421875
356.173,-0.099609375
356.182,-0.10272216796875
356.192,-0.0892333984375
356.202,-0.061370849609375
356.212,-0.0242462158203125
356.222,0.0153350830078125
356.232,0.05078125
356.242,0.0748291015625
356.252,0.08251953125
356.262,0.0775146484375
356.272,0.06915283203125
356.282,0.06561279296875
356.292,0.07366943359375
356.302,0.09417724609375
356.312,0.1190185546875
356.322,0.1424560546875
356.332,0.1644287109375
356.342,0.1827392578125
356.352,0.1925048828125
356.362,0.1849365234375
356.372,0.1444091796875
356.381,0.057403564453125
356.391,-0.07708740234375
356.401,-0.24462890625
356.411,-0.41650390625
356.421,-0.5634765625
356.431,-0.66748046875
356.441,-0.720703125
356.451,-0.720703125
356.461,-0.6748046875
356.471,-0.5986328125
356.481,-0.52294921875
356.491,-0.491455078125
356.501,-0.533203125
356.511,-0.6533203125
356.521,-0.830078125
356.531,-1.0263671875
356.541,-1.208984375
356.551,-1.361328125
356.561,-1.4765625
356.571,-1.5478515625
356.579,-1.5673828125
356.589,-1.533203125
356.599,-1.4580078125
356.609,-1.3544921875
356.619,-1.2421875
356.629,-1.15625
356.639,-1.134765625
356.649,-1.1923828125
356.659,-1.3271484375
356.669,-1.52734375
356.679,-1.771484375
356.689,-2.013671875
356.699,-2.171875
356.709,-2.150390625
356.719,-1.912109375
356.729,-1.53515625
356.739,-1.166015625
356.749,-0.93408203125
356.759,-0.8671875
356.769,-0.90234375
356.773,-1.4013671875
356.783,-1.6689453125
356.793,-1.9375
356.803,-2.16015625
356.813,-2.298828125
356.823,-2.326171875
356.833,-2.22265625
356.843,-1.9794921875
356.853,-1.6298828125
356.863,-1.2294921875
356.873,-0.82470703125
356.883,-0.438720703125
356.893,-0.1102294921875
356.903,0.0958251953125
356.913,0.1373291015625
356.923,0.034759521484375
356.932,-0.1407470703125
356.942,-0.3095703125
356.952,-0.4365234375
356.962,-0.54541015625
356.972,-0.6650390625
356.982,-0.79248046875
356.992,-0.91015625
357.002,-1.0048828125
357.012,-1.068359375
357.022,-1.10546875
357.032,-1.130859375
357.042,-1.154296875
357.052,-1.173828125
357.062,-1.1875
357.072,-1.2021484375
357.082,-1.21484375
357.092,-1.2236328125
357.102,-1.2314453125
357.112,-1.236328125
357.122,-1.2275390625
357.131,-1.208984375
357.141,-1.1865234375
357.151,-1.1640625
357.161,-1.1435546875
357.171,-1.1279296875
357.181,-1.111328125
357.191,-1.091796875
357.201,-1.0712890625
357.211,-1.056640625
357.221,-1.044921875
357.231,-1.0400390625
357.241,-1.048828125
357.251,-1.0751953125
357.261,-1.115234375
357.271,-1.1630859375
357.281,-1.2041015625
357.291,-1.2333984375
357.301,-1.2509765625
357.311,-1.2626953125
357.321,-1.279296875
357.329,-1.2998046875
357.339,-1.3134765625
357.349,-1.314453125
357.359,-1.2919921875
357.369,-1.236328125
357.379,-1.150390625
357.389,-1.056640625
357.399,-0.97705078125
357.409,-0.9267578125
357.419,-0.919921875
357.429,-0.9609375
357.439,-1.0283203125
357.449,-1.09765625
357.459,-1.150390625
357.469,-1.171875
357.479,-1.1640625
357.489,-1.13671875
357.499,-1.09765625
357.509,-1.052734375
357.519,-1.0009765625
357.523,-0.84619140625
357.533,-0.9033203125
357.543,-0.98681640625
357.553,-1.0595703125
357.563,-1.095703125
357.573,-1.087890625
357.583,-1.0400390625
357.593,-0.9658203125
357.603,-0.880859375
357.613,-0.7998046875
357.623,-0.74072265625
357.633,-0.70947265625
357.643,-0.70703125
357.653,-0.7412109375
357.663,-0.80517578125
357.673,-0.88134765625
357.682,-0.95703125
357.692,-1.0107421875
357.702,-1.025390625
357.712,-1.005859375
357.722,-0.96142578125
357.732,-0.90625
357.742,-0.8642578125
357.752,-0.83935546875
357.762,-0.82470703125
357.772,-0.8369140625
357.782,-0.890625
357.792,-0.95947265625
357.802,-1.0078125
357.812,-1.029296875
357.822,-1.0205078125
357.832,-0.97998046875
357.842,-0.92529296875
357.852,-0.87109375
357.862,-0.8173828125
357.872,-0.77099609375
357.88,-0.75146484375
357.89,-0.7568359375
357.9,-0.76611328125
357.91,-0.77490234375
357.92,-0.7958984375
357.93,-0.82373046875
357.94,-0.84033203125
357.95,-0.85400390625
357.96,-0.8837890625
357.97,-0.92041015625
357.98,-0.93310546875
357.99,-0.92041015625
358,-0.912109375
358.01,-0.9150390625
358.02,-0.9013671875
358.03,-0.84912109375
358.04,-0.7841796875
358.05,-0.7548828125
358.06,-0.77099609375
358.07,-0.791015625
358.079,-0.779296875
358.089,-0.75390625
358.099,-0.77197265625
358.109,-0.86181640625
358.119,-0.98046875
358.129,-1.04296875
358.139,-0.9990234375
358.149,-0.87060546875
358.159,-0.73291015625
358.169,-0.64892578125
358.179,-0.61328125
358.189,-0.56982421875
358.199,-0.4873046875
358.209,-0.401611328125
358.219,-0.37158203125
358.229,-0.411376953125
358.239,-0.474853515625
358.249,-0.5087890625
358.259,-0.51123046875
358.269,-0.53173828125
358.273,-0.7734375
358.283,-0.51025390625
358.293,-0.259521484375
358.303,-0.1324462890625
358.313,-0.1641845703125
358.323,-0.305908203125
358.333,-0.47119140625
358.343,-0.58154296875
358.353,-0.58544921875
358.363,-0.4755859375
358.373,-0.302978515625
358.383,-0.152099609375
358.393,-0.09600830078125
358.403,-0.1600341796875
358.413,-0.3115234375
358.423,-0.478515625
358.432,-0.587890625
358.442,-0.599609375
358.452,-0.5166015625
358.462,-0.380859375
358.472,-0.260009765625
358.482,-0.2166748046875
358.492,-0.274169921875
358.502,-0.410400390625
358.512,-0.57177734375
358.522,-0.69775390625
358.532,-0.7451171875
358.542,-0.69921875
358.552,-0.59130859375
358.562,-0.48779296875
358.572,-0.45849609375
358.582,-0.5361328125
358.592,-0.69580078125
358.602,-0.8662109375
358.612,-0.96484375
358.622,-0.95166015625
358.63,-0.84228515625
358.64,-0.6884765625
358.65,-0.5419921875
358.66,-0.42626953125
358.67,-0.335205078125
358.68,-0.254638671875
358.69,-0.1744384765625
358.7,-0.09698486328125
358.71,-0.040496826171875
358.72,-0.0225372314453125
358.73,-0.041290283203125
358.74,-0.07818603515625
358.75,-0.11383056640625
358.76,-0.1331787109375
358.77,-0.1318359375
358.78,-0.1253662109375
358.79,-0.1341552734375
358.8,-0.1572265625
358.81,-0.181640625
358.82,-0.207275390625
358.829,-0.2415771484375
358.839,-0.279052734375
358.849,-0.295166015625
358.859,-0.255859375
358.869,-0.1439208984375
358.879,0.0140838623046875
358.889,0.1531982421875
358.899,0.209228515625
358.909,0.15576171875
358.919,0.0186004638671875
358.929,-0.1380615234375
358.939,-0.25
358.949,-0.283935546875
358.959,-0.237548828125
358.969,-0.125244140625
358.979,0.0262603759765625
358.989,0.181884765625
358.999,0.308349609375
359.009,0.37890625
359.019,0.3779296875
359.023,0.036712646484375
359.033,0.0127105712890625
359.043,-0.0118331909179688
359.053,-0.039825439453125
359.063,-0.06768798828125
359.073,-0.093017578125
359.083,-0.1136474609375
359.093,-0.1236572265625
359.103,-0.10748291015625
359.113,-0.048248291015625
359.123,0.043914794921875
359.133,0.1259765625
359.143,0.162109375
359.153,0.15771484375
359.163,0.143310546875
359.173,0.1378173828125
359.182,0.1358642578125
359.192,0.12359619140625
359.202,0.09857177734375
359.212,0.07275390625
359.222,0.05328369140625
359.232,0.033294677734375
359.242,0.0067901611328125
359.252,-0.02288818359375
359.262,-0.05145263671875
359.272,-0.07366943359375
359.282,-0.07794189453125
359.292,-0.0572509765625
359.302,-0.019317626953125
359.312,0.021881103515625
359.322,0.059844970703125
359.332,0.100830078125
359.342,0.1546630859375
359.352,0.2127685546875
359.362,0.2431640625
359.372,0.2186279296875
359.38,0.137939453125
359.39,0.0249786376953125
359.4,-0.079345703125
359.41,-0.135498046875
359.42,-0.1259765625
359.43,-0.055267333984375
359.44,0.053619384765625
359.45,0.1588134765625
359.46,0.2235107421875
359.47,0.2398681640625
359.48,0.2186279296875
359.49,0.1630859375
359.5,0.0657958984375
359.51,-0.071044921875
359.52,-0.220458984375
359.53,-0.33642578125
359.54,-0.384521484375
359.55,-0.365966796875
359.56,-0.296630859375
359.57,-0.1815185546875
359.579,-0.0309295654296875
359.589,0.12322998046875
359.599,0.2493896484375
359.609,0.330322265625
359.619,0.350341796875
359.629,0.29443359375
359.639,0.1732177734375
359.649,0.025238037109375
359.659,-0.10980224609375
359.669,-0.2042236328125
359.679,-0.2332763671875
359.689,-0.184814453125
359.699,-0.07806396484375
359.709,0.044952392578125
359.719,0.1474609375
359.729,0.2119140625
359.739,0.2332763671875
359.749,0.213134765625
359.759,0.1585693359375
359.769,0.07611083984375
359.773,-0.3486328125
359.783,-0.354736328125
359.793,-0.3193359375
359.803,-0.2469482421875
359.813,-0.1517333984375
359.823,-0.051300048828125
359.833,0.036102294921875
359.843,0.093505859375
359.853,0.11639404296875
359.863,0.10992431640625
359.873,0.07330322265625
359.883,0.00768661499023438
359.893,-0.0697021484375
359.903,-0.140380859375
359.913,-0.1971435546875
359.923,-0.2325439453125
359.932,-0.2376708984375
359.942,-0.21044921875
359.952,-0.1571044921875
359.962,-0.08380126953125
359.972,0.00418472290039062
359.982,0.098388671875
359.992,0.183837890625
360.002,0.24462890625
360.012,0.27001953125
360.022,0.2587890625
360.032,0.21728515625
360.042,0.1517333984375
360.052,0.06884765625
360.062,-0.01751708984375
360.072,-0.0911865234375
360.082,-0.1451416015625
360.092,-0.1749267578125
360.102,-0.171875
360.112,-0.134033203125
360.122,-0.072021484375
360.13,-0.000901699066162109
360.14,0.06353759765625
360.15,0.11065673828125
360.16,0.1439208984375
360.17,0.171875
360.18,0.190673828125
360.19,0.18896484375
360.2,0.16357421875
360.21,0.1201171875
360.22,0.06329345703125
360.23,-0.000824928283691406
360.24,-0.06402587890625
360.25,-0.117919921875
360.26,-0.152587890625
360.27,-0.1593017578125
360.28,-0.13330078125
360.29,-0.07257080078125
360.3,0.012847900390625
360.31,0.0968017578125
360.32,0.1533203125
360.329,0.17138671875
360.339,0.1549072265625
360.349,0.115234375
360.359,0.059906005859375
360.369,-0.00797271728515625
360.379,-0.08001708984375
360.389,-0.14111328125
360.399,-0.17529296875
360.409,-0.1728515625
360.419,-0.13671875
360.429,-0.0751953125
360.439,0.000719547271728516
360.449,0.06964111328125
360.459,0.11004638671875
360.469,0.11700439453125
360.479,0.0968017578125
360.489,0.054168701171875
360.499,-0.0096435546875
360.509,-0.08587646484375
360.519,-0.153076171875
360.523,-0.0970458984375
360.533,-0.037261962890625
360.543,0.01593017578125
360.553,0.059722900390625
360.563,0.09466552734375
360.573,0.11376953125
360.583,0.1094970703125
360.593,0.08447265625
360.603,0.05169677734375
360.613,0.02337646484375
360.623,0.00184059143066406
360.633,-0.017333984375
360.643,-0.0374755859375
360.653,-0.061737060546875
360.663,-0.09381103515625
360.673,-0.131103515625
360.682,-0.1610107421875
360.692,-0.1700439453125
360.702,-0.1571044921875
360.712,-0.127685546875
360.722,-0.08367919921875
360.732,-0.0272979736328125
360.742,0.032867431640625
360.752,0.08709716796875
360.762,0.12890625
360.772,0.150146484375
360.782,0.142822265625
360.792,0.110595703125
360.802,0.0677490234375
360.812,0.0232391357421875
360.822,-0.01983642578125
360.832,-0.053314208984375
360.842,-0.06719970703125
360.852,-0.05926513671875
360.862,-0.0340576171875
360.872,0.00163173675537109
360.88,0.036712646484375
360.89,0.056549072265625
360.9,0.0528564453125
360.91,0.033660888671875
360.92,0.0185394287109375
360.93,0.0201873779296875
360.94,0.038055419921875
360.95,0.06866455078125
360.96,0.1077880859375
360.97,0.14501953125
360.98,0.166259765625
360.99,0.1640625
361,0.142578125
361.01,0.109619140625
361.02,0.06793212890625
361.03,0.0186309814453125
361.04,-0.0306243896484375
361.05,-0.0677490234375
361.06,-0.08514404296875
361.07,-0.08160400390625
361.079,-0.05975341796875
361.089,-0.0278167724609375
361.099,0.00231170654296875
361.109,0.021148681640625
361.119,0.023193359375
361.129,0.00755691528320312
361.139,-0.0206146240234375
361.149,-0.05487060546875
361.159,-0.0933837890625
361.169,-0.13525390625
361.179,-0.1724853515625
361.189,-0.1925048828125
361.199,-0.1898193359375
361.209,-0.167236328125
361.219,-0.1292724609375
361.229,-0.080810546875
361.239,-0.0310211181640625
361.249,0.00872802734375
361.259,0.0298614501953125
361.269,0.0289306640625
361.273,-0.0452880859375
361.283,-0.040985107421875
361.293,-0.04498291015625
361.303,-0.06524658203125
361.313,-0.1033935546875
361.323,-0.150146484375
361.333,-0.1947021484375
361.343,-0.2325439453125
361.353,-0.259521484375
361.363,-0.268798828125
361.373,-0.256103515625
361.383,-0.218505859375
361.393,-0.1566162109375
361.403,-0.07977294921875
361.413,0.000878810882568359
361.423,0.07470703125
361.432,0.12451171875
361.442,0.130859375
361.452,0.0845947265625
361.462,-0.0085601806640625
361.472,-0.1260986328125
361.482,-0.2308349609375
361.492,-0.286376953125
361.502,-0.27587890625
361.512,-0.2003173828125
361.522,-0.08172607421875
361.532,0.034423828125
361.542,0.10247802734375
361.552,0.10504150390625
361.562,0.05084228515625
361.572,-0.038818359375
361.582,-0.134521484375
361.592,-0.2110595703125
361.602,-0.2646484375
361.612,-0.30615234375
361.622,-0.33935546875
361.63,-0.35888671875
361.64,-0.362060546875
361.65,-0.3505859375
361.66,-0.32080078125
361.67,-0.266357421875
361.68,-0.1947021484375
361.69,-0.12042236328125
361.7,-0.0484619140625
361.71,0.020660400390625
361.72,0.07342529296875
361.73,0.09002685546875
361.74,0.06781005859375
361.75,0.0225372314453125
361.76,-0.032623291015625
361.77,-0.0928955078125
361.78,-0.1512451171875
361.79,-0.196044921875
361.8,-0.221923828125
361.81,-0.2330322265625
361.82,-0.231689453125
361.829,-0.2132568359375
361.839,-0.173828125
361.849,-0.12457275390625
361.859,-0.09649658203125
361.869,-0.11175537109375
361.879,-0.1568603515625
361.889,-0.20068359375
361.899,-0.2225341796875
361.909,-0.216064453125
361.919,-0.181396484375
361.929,-0.1219482421875
361.939,-0.0477294921875
361.949,0.0155715942382812
361.959,0.0325927734375
361.969,-0.0101470947265625
361.979,-0.08526611328125
361.989,-0.1505126953125
361.999,-0.1846923828125
362.009,-0.196533203125
362.019,-0.2099609375
362.023,-0.2490234375
362.033,-0.2457275390625
362.043,-0.26318359375
362.053,-0.279541015625
362.063,-0.271484375
362.073,-0.2413330078125
362.083,-0.21875
362.093,-0.2261962890625
362.103,-0.250244140625
362.113,-0.252685546875
362.123,-0.2020263671875
362.133,-0.1015625
362.143,0.0011444091796875
362.153,0.047607421875
362.163,0.0127944946289062
362.173,-0.08197021484375
362.181,-0.1884765625
362.191,-0.2626953125
362.201,-0.28857421875
362.211,-0.2822265625
362.221,-0.275634765625
362.231,-0.2900390625
362.241,-0.321044921875
362.251,-0.341552734375
362.261,-0.323974609375
362.271,-0.264892578125
362.281,-0.190185546875
362.291,-0.1397705078125
362.301,-0.1434326171875
362.311,-0.1934814453125
362.321,-0.2490234375
362.331,-0.275634765625
362.341,-0.26806640625
362.351,-0.2344970703125
362.361,-0.189453125
362.371,-0.150634765625
362.38,-0.125244140625
362.39,-0.1165771484375
362.4,-0.1319580078125
362.41,-0.1700439453125
362.42,-0.2142333984375
362.43,-0.2432861328125
362.44,-0.2403564453125
362.45,-0.202880859375
362.46,-0.1456298828125
362.47,-0.0875244140625
362.48,-0.0406494140625
362.49,-0.0130233764648438
362.5,-0.00887298583984375
362.51,-0.0281219482421875
362.52,-0.068359375
362.53,-0.12030029296875
362.54,-0.168212890625
362.55,-0.2027587890625
362.56,-0.22607421875
362.57,-0.247802734375
362.579,-0.28125
362.589,-0.33740234375
362.599,-0.414306640625
362.609,-0.496826171875
362.619,-0.564453125
362.629,-0.59765625
362.639,-0.587890625
362.649,-0.54931640625
362.659,-0.51318359375
362.669,-0.50439453125
362.679,-0.525390625
362.689,-0.5673828125
362.699,-0.61572265625
362.709,-0.65771484375
362.719,-0.6962890625
362.729,-0.74462890625
362.739,-0.80517578125
362.749,-0.865234375
362.759,-0.91552734375
362.769,-0.95849609375
362.773,-0.896484375
362.783,-0.82080078125
362.793,-0.76171875
362.803,-0.73095703125
362.813,-0.736328125
362.823,-0.78759765625
362.833,-0.87353515625
362.843,-0.96533203125
362.853,-1.0361328125
362.863,-1.0673828125
362.873,-1.044921875
362.883,-0.9658203125
362.893,-0.8544921875
362.903,-0.74609375
362.913,-0.65966796875
362.923,-0.60009765625
362.931,-0.572265625
362.941,-0.58740234375
362.951,-0.64794921875
362.961,-0.7333984375
362.971,-0.8173828125
362.981,-0.87548828125
362.991,-0.888671875
363.001,-0.8544921875
363.011,-0.7861328125
363.021,-0.7001953125
363.031,-0.62060546875
363.041,-0.57373046875
363.051,-0.5712890625
363.061,-0.6005859375
363.071,-0.638671875
363.081,-0.66943359375
363.091,-0.685546875
363.101,-0.681640625
363.111,-0.65966796875
363.121,-0.63330078125
363.13,-0.61376953125
363.14,-0.6044921875
363.15,-0.607421875
363.16,-0.6220703125
363.17,-0.6396484375
363.18,-0.65771484375
363.19,-0.67578125
363.2,-0.6826171875
363.21,-0.66552734375
363.22,-0.62060546875
363.23,-0.55224609375
363.24,-0.471923828125
363.25,-0.39697265625
363.26,-0.34130859375
363.27,-0.308349609375
363.28,-0.297607421875
363.29,-0.306396484375
363.3,-0.32568359375
363.31,-0.3447265625
363.32,-0.35986328125
363.329,-0.367431640625
363.339,-0.3671875
363.349,-0.360107421875
363.359,-0.35009765625
363.369,-0.34814453125
363.379,-0.365966796875
363.389,-0.40869140625
363.399,-0.47509765625
363.409,-0.5576171875
363.419,-0.640625
363.429,-0.71044921875
363.439,-0.75732421875
363.449,-0.77197265625
363.459,-0.75341796875
363.469,-0.705078125
363.479,-0.6279296875
363.489,-0.52783203125
363.499,-0.433837890625
363.509,-0.383544921875
363.519,-0.399658203125
363.523,-0.7490234375
363.533,-0.68310546875
363.543,-0.57568359375
363.553,-0.459228515625
363.563,-0.361328125
363.573,-0.30029296875
363.583,-0.279052734375
363.593,-0.291015625
363.603,-0.331787109375
363.613,-0.393310546875
363.623,-0.452392578125
363.633,-0.483154296875
363.643,-0.469482421875
363.653,-0.4111328125
363.663,-0.3203125
363.673,-0.212646484375
363.681,-0.0992431640625
363.691,0.0141830444335938
363.701,0.11798095703125
363.711,0.197998046875
363.721,0.2408447265625
363.731,0.2373046875
363.741,0.1846923828125
363.751,0.0849609375
363.761,-0.061370849609375
363.771,-0.242431640625
363.781,-0.415283203125
363.791,-0.521484375
363.801,-0.53076171875
363.811,-0.45849609375
363.821,-0.339599609375
363.831,-0.2120361328125
363.841,-0.10882568359375
363.851,-0.050567626953125
363.861,-0.041473388671875
363.871,-0.07470703125
363.88,-0.1337890625
363.89,-0.1962890625
363.9,-0.2413330078125
363.91,-0.253662109375
363.92,-0.2274169921875
363.93,-0.1661376953125
363.94,-0.0811767578125
363.95,0.00600814819335938
363.96,0.06610107421875
363.97,0.0806884765625
363.98,0.04345703125
363.99,-0.045196533203125
364,-0.16357421875
364.01,-0.275146484375
364.02,-0.356689453125
364.03,-0.402099609375
364.04,-0.408935546875
364.05,-0.37890625
364.06,-0.31689453125
364.07,-0.2279052734375
364.079,-0.12139892578125
364.089,-0.0174407958984375
364.099,0.059417724609375
364.109,0.094970703125
364.119,0.09271240234375
364.129,0.0677490234375
364.139,0.03656005859375
364.149,0.0119476318359375
364.159,0.000893592834472656
364.169,0.00153350830078125
364.179,0.00702285766601562
364.189,0.0130386352539062
364.199,0.0141754150390625
364.209,-7.84993171691895e-05
364.219,-0.03521728515625
364.229,-0.0850830078125
364.239,-0.1416015625
364.249,-0.2010498046875
364.259,-0.255126953125
364.269,-0.289794921875
364.273,-0.1849365234375
364.283,-0.11920166015625
364.293,-0.048553466796875
364.303,0.0153045654296875
364.313,0.05511474609375
364.323,0.057769775390625
364.333,0.0306549072265625
364.343,-0.000152111053466797
364.353,-0.0101242065429688
364.363,0.006378173828125
364.373,0.03778076171875
364.383,0.072021484375
364.393,0.1026611328125
364.403,0.1158447265625
364.413,0.087890625
364.423,0.00954437255859375
364.431,-0.0992431640625
364.441,-0.2083740234375
364.451,-0.298095703125
364.461,-0.35546875
364.471,-0.3662109375
364.481,-0.321044921875
364.491,-0.2236328125
364.501,-0.1025390625
364.511,-0.0070953369140625
364.521,0.02978515625
364.531,0.01812744140625
364.541,-0.011688232421875
364.551,-0.046539306640625
364.561,-0.08929443359375
364.571,-0.1376953125
364.581,-0.1832275390625
364.591,-0.2198486328125
364.601,-0.25146484375
364.611,-0.292236328125
364.621,-0.35400390625
364.63,-0.431884765625
364.64,-0.5009765625
364.65,-0.52294921875
364.66,-0.466796875
364.67,-0.33837890625
364.68,-0.1773681640625
364.69,-0.029998779296875
364.7,0.0672607421875
364.71,0.09710693359375
364.72,0.07379150390625
364.73,0.0310211181640625
364.74,-0.012725830078125
364.75,-0.059051513671875
364.76,-0.1002197265625
364.77,-0.11065673828125
364.78,-0.08123779296875
364.79,-0.04443359375
364.8,-0.04449462890625
364.81,-0.09393310546875
364.82,-0.1705322265625
364.829,-0.243896484375
364.839,-0.2978515625
364.849,-0.324951171875
364.859,-0.309326171875
364.869,-0.24462890625
364.879,-0.152099609375
364.889,-0.060546875
364.899,0.0272216796875
364.909,0.121826171875
364.919,0.212646484375
364.929,0.2724609375
364.939,0.284423828125
364.949,0.243896484375
364.959,0.1494140625
364.969,0.00718307495117188
364.979,-0.1595458984375
364.989,-0.31201171875
364.999,-0.414794921875
365.009,-0.456787109375
365.019,-0.44482421875
365.023,0.1741943359375
365.033,0.2330322265625
365.043,0.2578125
365.053,0.26123046875
365.063,0.236328125
365.073,0.1680908203125
365.083,0.056915283203125
365.093,-0.07501220703125
365.103,-0.2030029296875
365.113,-0.31787109375
365.123,-0.42236328125
365.133,-0.515625
365.143,-0.58935546875
365.153,-0.62646484375
365.163,-0.60888671875
365.173,-0.52978515625
365.181,-0.39794921875
365.191,-0.2279052734375
365.201,-0.042083740234375
365.211,0.121337890625
365.221,0.2315673828125
365.231,0.271728515625
365.241,0.208251953125
365.251,0.00118732452392578
365.261,-0.3212890625
365.271,-0.62109375
365.281,-0.71630859375
365.291,-0.51708984375
365.301,-0.12017822265625
365.311,0.2415771484375
365.321,0.369873046875
365.331,0.24658203125
365.341,0.00389289855957031
365.351,-0.205322265625
365.361,-0.289794921875
365.371,-0.24658203125
365.38,-0.1553955078125
365.39,-0.1046142578125
365.4,-0.0926513671875
365.41,-0.036163330078125
365.42,0.1065673828125
365.43,0.275390625
365.44,0.39111328125
365.45,0.455322265625
365.46,0.5615234375
365.47,0.7900390625
365.48,1.068359375
365.49,1.2177734375
365.5,1.130859375
365.51,0.8623046875
365.52,0.54833984375
365.53,0.2880859375
365.54,0.0875244140625
365.55,-0.10479736328125
365.56,-0.29638671875
365.57,-0.4267578125
365.579,-0.460693359375
365.589,-0.437744140625
365.599,-0.427978515625
365.609,-0.476318359375
365.619,-0.56494140625
365.629,-0.62744140625
365.639,-0.6103515625
365.649,-0.50634765625
365.659,-0.34423828125
365.669,-0.169189453125
365.679,-0.0142135620117188
365.689,0.10272216796875
365.699,0.16015625
365.709,0.14306640625
365.719,0.06634521484375
365.729,-0.030487060546875
365.739,-0.11907958984375
365.749,-0.1976318359375
365.759,-0.274658203125
365.769,-0.35498046875
365.773,-0.17626953125
365.783,-0.05072021484375
365.793,0.033721923828125
365.803,0.057037353515625
365.813,0.01776123046875
365.823,-0.070068359375
365.833,-0.173828125
365.843,-0.25830078125
365.853,-0.30810546875
365.863,-0.321533203125
365.873,-0.306640625
365.883,-0.282470703125
365.893,-0.265625
365.903,-0.260498046875
365.913,-0.27001953125
365.923,-0.29638671875
365.931,-0.329833984375
365.941,-0.34912109375
365.951,-0.333984375
365.961,-0.269287109375
365.971,-0.162353515625
365.981,-0.046295166015625
365.991,0.04742431640625
366.001,0.1019287109375
366.011,0.11102294921875
366.021,0.08709716796875
366.031,0.048858642578125
366.041,0.00239372253417969
366.051,-0.053009033203125
366.061,-0.11865234375
366.071,-0.196044921875
366.081,-0.27978515625
366.091,-0.35986328125
366.101,-0.433837890625
366.111,-0.50146484375
366.121,-0.55517578125
366.13,-0.58154296875
366.14,-0.56787109375
366.15,-0.50537109375
366.16,-0.395263671875
366.17,-0.250244140625
366.18,-0.101318359375
366.19,0.00403213500976562
366.2,0.02947998046875
366.21,-0.03070068359375
366.22,-0.15869140625
366.23,-0.3193359375
366.24,-0.467529296875
366.25,-0.572265625
366.26,-0.625
366.27,-0.62939453125
366.28,-0.59814453125
366.29,-0.54833984375
366.3,-0.4931640625
366.31,-0.44384765625
366.32,-0.413818359375
366.325,-0.206298828125
366.335,-0.08026123046875
366.345,0.06488037109375
366.355,0.214599609375
366.365,0.35009765625
366.375,0.449951171875
366.385,0.492919921875
366.395,0.464599609375
366.405,0.366943359375
366.415,0.22119140625
366.425,0.057373046875
366.435,-0.09332275390625
366.445,-0.2071533203125
366.455,-0.275390625
366.465,-0.301025390625
366.475,-0.294677734375
366.482,-0.274658203125
366.492,-0.257568359375
366.502,-0.253662109375
366.512,-0.2705078125
366.522,-0.306396484375
366.532,-0.35107421875
366.542,-0.393310546875
366.552,-0.42333984375
366.562,-0.43310546875
366.572,-0.42724609375
366.582,-0.424560546875
366.592,-0.443603515625
366.602,-0.493408203125
366.612,-0.57080078125
366.622,-0.6572265625
366.632,-0.7294921875
366.642,-0.77294921875
366.652,-0.78076171875
366.662,-0.75244140625
366.672,-0.6953125
366.681,-0.62060546875
366.691,-0.53466796875
366.701,-0.44921875
366.711,-0.380126953125
366.721,-0.341796875
366.731,-0.346923828125
366.741,-0.400390625
366.751,-0.49658203125
366.761,-0.6279296875
366.771,-0.7841796875
366.781,-0.94140625
366.791,-1.072265625
366.801,-1.1708984375
366.811,-1.2451171875
366.821,-1.2890625
366.831,-1.29296875
366.841,-1.2744140625
366.851,-1.2685546875
366.861,-1.296875
366.871,-1.3525390625
366.88,-1.41796875
366.89,-1.46875
366.9,-1.478515625
366.91,-1.4228515625
366.92,-1.2880859375
366.93,-1.064453125
366.94,-0.7509765625
366.95,-0.374267578125
366.96,-0.00981903076171875
366.97,0.2398681640625
366.98,0.297119140625
366.99,0.1527099609375
367,-0.1356201171875
367.01,-0.4697265625
367.02,-0.74755859375
367.03,-0.89990234375
367.04,-0.91259765625
367.05,-0.8330078125
367.06,-0.74658203125
367.07,-0.73828125
367.075,-1.4228515625
367.085,-1.4423828125
367.095,-1.4296875
367.105,-1.4228515625
367.115,-1.4365234375
367.125,-1.4638671875
367.135,-1.4921875
367.145,-1.5126953125
367.155,-1.5224609375
367.165,-1.5146484375
367.175,-1.4775390625
367.185,-1.4091796875
367.195,-1.3212890625
367.205,-1.2314453125
367.215,-1.1474609375
367.225,-1.07421875
367.232,-1.025390625
367.242,-1.0078125
367.252,-1.0126953125
367.262,-1.0244140625
367.272,-1.0390625
367.282,-1.0576171875
367.292,-1.0869140625
367.302,-1.1337890625
367.312,-1.1875
367.322,-1.2236328125
367.332,-1.228515625
367.342,-1.2138671875
367.352,-1.1884765625
367.362,-1.1513671875
367.372,-1.1083984375
367.382,-1.07421875
367.392,-1.05859375
367.402,-1.0576171875
367.412,-1.0615234375
367.422,-1.060546875
367.431,-1.046875
367.441,-1.0244140625
367.451,-1.001953125
367.461,-0.986328125
367.471,-0.98046875
367.481,-0.984375
367.491,-0.99609375
367.501,-1.0166015625
367.511,-1.0400390625
367.521,-1.0546875
367.531,-1.056640625
367.541,-1.0439453125
367.551,-1.021484375
367.561,-0.9912109375
367.571,-0.95947265625
367.581,-0.93701171875
367.591,-0.9287109375
367.601,-0.93115234375
367.611,-0.9287109375
367.621,-0.90673828125
367.63,-0.86181640625
367.64,-0.80517578125
367.65,-0.75732421875
367.66,-0.73681640625
367.67,-0.7509765625
367.68,-0.7939453125
367.69,-0.85595703125
367.7,-0.92529296875
367.71,-0.99365234375
367.72,-1.0546875
367.73,-1.1005859375
367.74,-1.12109375
367.75,-1.111328125
367.76,-1.076171875
367.77,-1.0341796875
367.78,-1.001953125
367.79,-0.982421875
367.8,-0.9658203125
367.81,-0.95263671875
367.82,-0.94384765625
367.824,-0.81689453125
367.834,-0.80029296875
367.844,-0.79541015625
367.854,-0.80908203125
367.864,-0.84326171875
367.874,-0.88720703125
367.884,-0.927734375
367.894,-0.9599609375
367.904,-0.98095703125
367.914,-0.98779296875
367.924,-0.9755859375
367.934,-0.94873046875
367.944,-0.91455078125
367.954,-0.88232421875
367.964,-0.861328125
367.974,-0.85791015625
367.982,-0.8671875
367.992,-0.87841796875
368.002,-0.88134765625
368.012,-0.86962890625
368.022,-0.84521484375
368.032,-0.81396484375
368.042,-0.78369140625
368.052,-0.7607421875
368.062,-0.7451171875
368.072,-0.7353515625
368.082,-0.73486328125
368.092,-0.744140625
368.102,-0.7578125
368.112,-0.76611328125
368.122,-0.7626953125
368.132,-0.748046875
368.142,-0.728515625
368.152,-0.71240234375
368.162,-0.70654296875
368.172,-0.71240234375
368.181,-0.71875
368.191,-0.71142578125
368.201,-0.6845703125
368.211,-0.65185546875
368.221,-0.625
368.231,-0.60595703125
368.241,-0.591796875
368.251,-0.5908203125
368.261,-0.61279296875
368.271,-0.65576171875
368.281,-0.70068359375
368.291,-0.7333984375
368.301,-0.751953125
368.311,-0.76123046875
368.321,-0.75732421875
368.331,-0.73486328125
368.341,-0.6962890625
368.351,-0.65576171875
368.361,-0.6279296875
368.371,-0.61376953125
368.38,-0.60205078125
368.39,-0.58642578125
368.4,-0.57470703125
368.41,-0.58154296875
368.42,-0.611328125
368.43,-0.6474609375
368.44,-0.66259765625
368.45,-0.6376953125
368.46,-0.57666015625
368.47,-0.5029296875
368.48,-0.441162109375
368.49,-0.397705078125
368.5,-0.364013671875
368.51,-0.33544921875
368.52,-0.322265625
368.53,-0.3408203125
368.54,-0.395263671875
368.55,-0.46728515625
368.56,-0.52587890625
368.57,-0.5537109375
368.574,-0.56005859375
368.584,-0.5439453125
368.594,-0.51904296875
368.604,-0.4921875
368.614,-0.4697265625
368.624,-0.45703125
368.634,-0.4560546875
368.644,-0.462890625
368.654,-0.466796875
368.664,-0.460693359375
368.674,-0.44580078125
368.684,-0.43310546875
368.694,-0.43603515625
368.704,-0.457763671875
368.714,-0.487060546875
368.724,-0.50439453125
368.732,-0.4970703125
368.742,-0.466796875
368.752,-0.431396484375
368.762,-0.411865234375
368.772,-0.420166015625
368.782,-0.451904296875
368.792,-0.486572265625
368.802,-0.496337890625
368.812,-0.460693359375
368.822,-0.37890625
368.832,-0.27734375
368.842,-0.195556640625
368.852,-0.166015625
368.862,-0.2015380859375
368.872,-0.2998046875
368.882,-0.44873046875
368.892,-0.60888671875
368.902,-0.70458984375
368.912,-0.67138671875
368.922,-0.52099609375
368.931,-0.330078125
368.941,-0.171630859375
368.951,-0.07037353515625
368.961,-0.0157623291015625
368.971,0.0196533203125
368.981,0.06048583984375
368.991,0.106689453125
369.001,0.1265869140625
369.011,0.06976318359375
369.021,-0.09619140625
369.031,-0.345703125
369.041,-0.58984375
369.051,-0.72705078125
369.061,-0.71630859375
369.071,-0.59326171875
369.081,-0.421875
369.091,-0.245361328125
369.101,-0.079345703125
369.111,0.0732421875
369.121,0.19189453125
369.13,0.2279052734375
369.14,0.13623046875
369.15,-0.0787353515625
369.16,-0.34912109375
369.17,-0.57470703125
369.18,-0.6728515625
369.19,-0.6181640625
369.2,-0.457275390625
369.21,-0.2822265625
369.22,-0.1746826171875
369.23,-0.1519775390625
369.24,-0.16943359375
369.25,-0.1744384765625
369.26,-0.1619873046875
369.27,-0.169677734375
369.28,-0.2152099609375
369.29,-0.258056640625
369.3,-0.2301025390625
369.31,-0.091796875
369.32,0.1302490234375
369.324,-0.1986083984375
369.334,-0.3798828125
369.344,-0.41455078125
369.354,-0.337646484375
369.364,-0.2352294921875
369.374,-0.171630859375
369.384,-0.1451416015625
369.394,-0.10693359375
369.404,-0.031982421875
369.414,0.032470703125
369.424,0.016632080078125
369.434,-0.0863037109375
369.444,-0.21533203125
369.454,-0.30859375
369.464,-0.3544921875
369.474,-0.3798828125
369.482,-0.39990234375
369.492,-0.384033203125
369.502,-0.294921875
369.512,-0.1455078125
369.522,0.00406646728515625
369.532,0.11199951171875
369.542,0.1959228515625
369.552,0.293212890625
369.562,0.3876953125
369.572,0.408203125
369.582,0.31640625
369.592,0.1590576171875
369.602,0.024749755859375
369.612,-0.04168701171875
369.622,-0.0643310546875
369.632,-0.07940673828125
369.642,-0.08203125
369.652,-0.0472412109375
369.662,0.0140609741210938
369.672,0.054351806640625
369.681,0.051300048828125
369.691,0.03619384765625
369.701,0.042510986328125
369.711,0.0528564453125
369.721,0.0274200439453125
369.731,-0.0260009765625
369.741,-0.0535888671875
369.751,-0.02978515625
369.761,0.0104598999023438
369.771,0.024566650390625
369.781,0.0185089111328125
369.791,0.0273284912109375
369.801,0.054718017578125
369.811,0.06951904296875
369.821,0.058197021484375
369.831,0.040130615234375
369.841,0.026702880859375
369.851,-0.0025177001953125
369.861,-0.062042236328125
369.871,-0.1240234375
369.88,-0.149169921875
369.89,-0.1378173828125
369.9,-0.121826171875
369.91,-0.11627197265625
369.92,-0.1094970703125
369.93,-0.095703125
369.94,-0.08251953125
369.95,-0.06890869140625
369.96,-0.04437255859375
369.97,-0.00859832763671875
369.98,0.029754638671875
369.99,0.0711669921875
370,0.12066650390625
370.01,0.1695556640625
370.02,0.205810546875
370.03,0.2305908203125
370.04,0.2445068359375
370.05,0.2373046875
370.06,0.2032470703125
370.07,0.154296875
370.074,-0.1583251953125
370.084,-0.1798095703125
370.094,-0.17236328125
370.104,-0.1365966796875
370.114,-0.0755615234375
370.124,1.32918357849121e-05
370.134,0.07293701171875
370.144,0.12481689453125
370.154,0.1431884765625
370.164,0.12127685546875
370.174,0.05950927734375
370.184,-0.02508544921875
370.194,-0.1064453125
370.204,-0.167236328125
370.214,-0.2027587890625
370.224,-0.2113037109375
370.232,-0.1917724609375
370.242,-0.1483154296875
370.252,-0.09112548828125
370.262,-0.035614013671875
370.272,-0.000310659408569336
370.282,0.00517654418945312
370.292,-0.0150299072265625
370.302,-0.048492431640625
370.312,-0.0816650390625
370.322,-0.10552978515625
370.332,-0.11260986328125
370.342,-0.09515380859375
370.352,-0.050079345703125
370.362,0.019561767578125
370.372,0.103515625
370.382,0.1829833984375
370.392,0.2435302734375
370.402,0.28125
370.412,0.2919921875
370.422,0.275634765625
370.431,0.23974609375
370.441,0.189453125
370.451,0.1273193359375
370.461,0.061187744140625
370.471,0.000959873199462891
370.481,-0.045684814453125
370.491,-0.07708740234375
370.501,-0.0921630859375
370.511,-0.08612060546875
370.521,-0.060577392578125
370.531,-0.026153564453125
370.541,0.00919342041015625
370.551,0.0450439453125
370.561,0.08062744140625
370.571,0.10943603515625
370.581,0.1270751953125
370.591,0.1341552734375
370.601,0.1300048828125
370.611,0.11651611328125
370.621,0.097412109375
370.629,0.0714111328125
370.639,0.03704833984375
370.649,-0.00114345550537109
370.659,-0.033721923828125
370.669,-0.05120849609375
370.679,-0.053314208984375
370.689,-0.0489501953125
370.699,-0.045928955078125
370.709,-0.044891357421875
370.719,-0.041717529296875
370.729,-0.035247802734375
370.739,-0.0278778076171875
370.749,-0.0222320556640625
370.759,-0.0216064453125
370.769,-0.027008056640625
370.779,-0.03564453125
370.789,-0.0443115234375
370.799,-0.048828125
370.809,-0.04241943359375
370.819,-0.0232391357421875
370.823,0.0645751953125
370.833,0.060882568359375
370.843,0.0303955078125
370.853,-0.03277587890625
370.863,-0.1170654296875
370.873,-0.2008056640625
370.883,-0.26171875
370.893,-0.2802734375
370.903,-0.2479248046875
370.913,-0.17578125
370.923,-0.08660888671875
370.933,-0.00228691101074219
370.943,0.05645751953125
370.953,0.07220458984375
370.963,0.043243408203125
370.973,-0.016510009765625
370.982,-0.090576171875
370.992,-0.16357421875
371.002,-0.215576171875
371.012,-0.2261962890625
371.022,-0.1923828125
371.032,-0.135498046875
371.042,-0.08758544921875
371.052,-0.07208251953125
371.062,-0.09613037109375
371.072,-0.1510009765625
371.082,-0.223388671875
371.092,-0.310546875
371.102,-0.41259765625
371.112,-0.52294921875
371.122,-0.6474609375
371.132,-0.7900390625
371.142,-0.92626953125
371.152,-1.02734375
371.162,-1.0986328125
371.172,-1.1435546875
371.181,-1.15234375
371.191,-1.1279296875
371.201,-1.0986328125
371.211,-1.07421875
371.221,-1.0537109375
371.231,-1.044921875
371.241,-1.0498046875
371.251,-1.0517578125
371.261,-1.0458984375
371.271,-1.0302734375
371.281,-0.99169921875
371.291,-0.93212890625
371.301,-0.86962890625
371.311,-0.81396484375
371.321,-0.7578125
371.331,-0.69873046875
371.341,-0.6533203125
371.351,-0.626953125
371.361,-0.60400390625
371.371,-0.57958984375
371.379,-0.5732421875
371.389,-0.59228515625
371.399,-0.61328125
371.409,-0.62060546875
371.419,-0.62353515625
371.429,-0.63427734375
371.439,-0.64599609375
371.449,-0.65234375
371.459,-0.6640625
371.469,-0.68359375
371.479,-0.6884765625
371.489,-0.66455078125
371.499,-0.6318359375
371.509,-0.62158203125
371.519,-0.63671875
371.529,-0.6640625
371.539,-0.70556640625
371.549,-0.7666015625
371.559,-0.8193359375
371.569,-0.8193359375
371.573,-0.32763671875
371.583,-0.270263671875
371.593,-0.26904296875
371.603,-0.317626953125
371.613,-0.37109375
371.623,-0.3837890625
371.633,-0.354248046875
371.643,-0.32470703125
371.653,-0.32958984375
371.663,-0.3564453125
371.673,-0.37255859375
371.683,-0.3759765625
371.693,-0.402099609375
371.703,-0.481201171875
371.713,-0.59375
371.723,-0.6748046875
371.732,-0.677734375
371.742,-0.626953125
371.752,-0.58203125
371.762,-0.56787109375
371.772,-0.5546875
371.782,-0.4931640625
371.792,-0.36181640625
371.802,-0.191650390625
371.812,-0.05126953125
371.822,-0.00261497497558594
371.832,-0.058990478515625
371.842,-0.1766357421875
371.852,-0.290283203125
371.862,-0.361328125
371.872,-0.396728515625
371.882,-0.430908203125
371.892,-0.493896484375
371.902,-0.59423828125
371.912,-0.70751953125
371.922,-0.7841796875
371.931,-0.779296875
371.941,-0.6787109375
371.951,-0.50244140625
371.961,-0.290283203125
371.971,-0.0887451171875
371.981,0.060638427734375
371.991,0.1307373046875
372.001,0.1207275390625
372.011,0.05853271484375
372.021,-0.0128936767578125
372.031,-0.060302734375
372.041,-0.0721435546875
372.051,-0.052154541015625
372.061,-0.0152130126953125
372.071,0.0114288330078125
372.081,-0.000907421112060547
372.091,-0.06378173828125
372.101,-0.1644287109375
372.111,-0.277587890625
372.121,-0.38232421875
372.129,-0.46533203125
372.139,-0.5126953125
372.149,-0.51123046875
372.159,-0.460205078125
372.169,-0.36865234375
372.179,-0.2491455078125
372.189,-0.1119384765625
372.199,0.0396728515625
372.209,0.1990966796875
372.219,0.349609375
372.229,0.473388671875
372.239,0.56005859375
372.249,0.599609375
372.259,0.583984375
372.269,0.51611328125
372.279,0.41259765625
372.289,0.2890625
372.299,0.16162109375
372.309,0.046905517578125
372.319,-0.0428466796875
372.323,0.0880126953125
372.333,0.185546875
372.343,0.26611328125
372.353,0.318115234375
372.363,0.3408203125
372.373,0.347412109375
372.383,0.350830078125
372.393,0.343505859375
372.403,0.30859375
372.413,0.2432861328125
372.423,0.1636962890625
372.433,0.090576171875
372.443,0.033935546875
372.453,-0.00626373291015625
372.463,-0.0298614501953125
372.473,-0.0311126708984375
372.482,-0.00604248046875
372.492,0.038116455078125
372.502,0.08319091796875
372.512,0.11248779296875
372.522,0.125
372.532,0.12744140625
372.542,0.1153564453125
372.552,0.08050537109375
372.562,0.0308685302734375
372.572,-0.0118637084960938
372.582,-0.0259857177734375
372.592,-0.000504970550537109
372.602,0.0555419921875
372.612,0.11859130859375
372.622,0.1685791015625
372.632,0.194580078125
372.642,0.1898193359375
372.652,0.1553955078125
372.662,0.1002197265625
372.672,0.03753662109375
372.681,-0.016265869140625
372.691,-0.051361083984375
372.701,-0.07598876953125
372.711,-0.10308837890625
372.721,-0.128173828125
372.731,-0.135986328125
372.741,-0.11627197265625
372.751,-0.06488037109375
372.761,0.0156021118164062
372.771,0.111328125
372.781,0.19873046875
372.791,0.250732421875
372.801,0.247314453125
372.811,0.188232421875
372.821,0.09246826171875
372.831,-0.0150604248046875
372.841,-0.11004638671875
372.851,-0.1689453125
372.861,-0.175048828125
372.871,-0.12939453125
372.879,-0.0418701171875
372.889,0.07513427734375
372.899,0.19384765625
372.909,0.27880859375
372.919,0.309814453125
372.929,0.2822265625
372.939,0.2017822265625
372.949,0.08917236328125
372.959,-0.0286102294921875
372.969,-0.1256103515625
372.979,-0.181884765625
372.989,-0.193359375
372.999,-0.1700439453125
373.009,-0.12890625
373.019,-0.0888671875
373.029,-0.061279296875
373.039,-0.048309326171875
373.049,-0.0506591796875
373.059,-0.0693359375
373.069,-0.09991455078125
373.073,-0.18505859375
373.083,-0.1591796875
373.093,-0.12017822265625
373.103,-0.07745361328125
373.113,-0.039520263671875
373.123,-0.0117950439453125
373.133,-0.00300025939941406
373.143,-0.019073486328125
373.153,-0.058074951171875
373.163,-0.11138916015625
373.173,-0.158203125
373.183,-0.17138671875
373.193,-0.139892578125
373.203,-0.07427978515625
373.213,0.0139694213867188
373.223,0.11767578125
373.233,0.21826171875
373.243,0.29443359375
373.253,0.341796875
373.263,0.35693359375
373.273,0.320556640625
373.283,0.226318359375
373.293,0.1331787109375
373.303,0.1448974609375
373.313,0.3095703125
373.323,0.5498046875
373.333,0.68994140625
373.343,0.58837890625
373.353,0.283935546875
373.363,-0.0164031982421875
373.373,-0.11566162109375
373.383,0.0133285522460938
373.393,0.2239990234375
373.403,0.357421875
373.413,0.404296875
373.423,0.480224609375
373.431,0.6533203125
373.441,0.84228515625
373.451,0.88916015625
373.461,0.693359375
373.471,0.28662109375
373.481,-0.190185546875
373.491,-0.5615234375
373.501,-0.70751953125
373.511,-0.6083984375
373.521,-0.323486328125
373.531,0.0296783447265625
373.541,0.2861328125
373.551,0.2939453125
373.561,0.0100173950195312
373.571,-0.450439453125
373.581,-0.87841796875
373.591,-1.099609375
373.601,-1.078125
373.611,-0.9296875
373.621,-0.81005859375
373.629,-0.80859375
373.639,-0.9296875
373.649,-1.1025390625
373.659,-1.203125
373.669,-1.1279296875
373.679,-0.86767578125
373.689,-0.50634765625
373.699,-0.181884765625
373.709,-0.027130126953125
373.719,-0.116943359375
373.729,-0.446533203125
373.739,-0.9326171875
373.749,-1.4375
373.759,-1.818359375
373.769,-1.984375
373.779,-1.9111328125
373.789,-1.6328125
373.799,-1.224609375
373.809,-0.78173828125
373.819,-0.402587890625
373.823,-0.54541015625
373.833,-0.67529296875
373.843,-0.68994140625
373.853,-0.56689453125
373.863,-0.322509765625
373.873,0.00131607055664062
373.883,0.3486328125
373.893,0.6669921875
373.903,0.9462890625
373.913,1.185546875
373.923,1.3173828125
373.933,1.2431640625
373.943,0.92431640625
373.953,0.41064453125
373.963,-0.2030029296875
373.973,-0.82763671875
373.982,-1.37109375
373.992,-1.7138671875
374.002,-1.7392578125
374.012,-1.3876953125
374.022,-0.68115234375
374.032,0.27197265625
374.042,1.2958984375
374.052,2.20703125
374.062,2.880859375
374.072,3.27734375
374.082,3.390625
374.092,3.21484375
374.102,2.76171875
374.112,2.103515625
374.122,1.37890625
374.132,0.71875
374.142,0.2017822265625
374.152,-0.1685791015625
374.162,-0.440185546875
374.172,-0.673828125
374.181,-0.908203125
374.191,-1.1533203125
374.201,-1.4091796875
374.211,-1.671875
374.221,-1.9228515625
374.231,-2.12109375
374.241,-2.234375
374.251,-2.24609375
374.261,-2.16015625
374.271,-1.98828125
374.281,-1.7666015625
374.291,-1.517578125
374.301,-1.2294921875
374.311,-0.875
374.321,-0.465087890625
374.331,-0.06768798828125
374.341,0.253662109375
374.351,0.470703125
374.361,0.56494140625
374.371,0.52783203125
374.379,0.38037109375
374.389,0.1771240234375
374.399,-0.015960693359375
374.409,-0.14404296875
374.419,-0.1842041015625
374.429,-0.1446533203125
374.439,-0.0455322265625
374.449,0.0889892578125
374.459,0.22412109375
374.469,0.32080078125
374.479,0.3564453125
374.489,0.326904296875
374.499,0.2366943359375
374.509,0.1038818359375
374.519,-0.03961181640625
374.529,-0.16455078125
374.539,-0.252197265625
374.549,-0.28271484375
374.559,-0.241455078125
374.569,-0.1409912109375
374.573,0.2042236328125
374.583,0.1351318359375
374.593,0.0288848876953125
374.603,-0.101806640625
374.613,-0.2298583984375
374.623,-0.322021484375
374.633,-0.3623046875
374.643,-0.350341796875
374.653,-0.2939453125
374.663,-0.2130126953125
374.673,-0.133056640625
374.683,-0.0675048828125
374.693,-0.0233917236328125
374.703,-0.0134429931640625
374.713,-0.0379638671875
374.723,-0.07647705078125
374.732,-0.11187744140625
374.742,-0.1365966796875
374.752,-0.139892578125
374.762,-0.11920166015625
374.772,-0.08935546875
374.782,-0.061370849609375
374.792,-0.03631591796875
374.802,-0.0219879150390625
374.812,-0.023773193359375
374.822,-0.028717041015625
374.832,-0.0228729248046875
374.842,-0.00659942626953125
374.852,0.0168914794921875
374.862,0.047332763671875
374.872,0.08056640625
374.882,0.11328125
374.892,0.1510009765625
374.902,0.1944580078125
374.912,0.2252197265625
374.922,0.2235107421875
374.93,0.184814453125
374.94,0.1109619140625
374.95,0.00748062133789062
374.96,-0.1064453125
374.97,-0.2017822265625
374.98,-0.253173828125
374.99,-0.25048828125
375,-0.202392578125
375.01,-0.125732421875
375.02,-0.029998779296875
375.03,0.0718994140625
375.04,0.148681640625
375.05,0.1708984375
375.06,0.1383056640625
375.07,0.0682373046875
375.08,-0.0283966064453125
375.09,-0.13427734375
375.1,-0.2120361328125
375.11,-0.2310791015625
375.12,-0.198486328125
375.129,-0.1483154296875
375.139,-0.10809326171875
375.149,-0.08013916015625
375.159,-0.05133056640625
375.169,-0.0180206298828125
375.179,0.00814056396484375
375.189,0.0167694091796875
375.199,0.00136184692382812
375.209,-0.0496826171875
375.219,-0.143798828125
375.229,-0.266357421875
375.239,-0.3828125
375.249,-0.46142578125
375.259,-0.487548828125
375.269,-0.458740234375
375.279,-0.384521484375
375.289,-0.289306640625
375.299,-0.206787109375
375.309,-0.1641845703125
375.319,-0.16455078125
375.323,-0.08148193359375
375.333,0.027374267578125
375.343,0.12469482421875
375.353,0.1890869140625
375.363,0.216796875
375.373,0.197021484375
375.383,0.11651611328125
375.393,-0.0272979736328125
375.403,-0.223388671875
375.413,-0.44140625
375.423,-0.6337890625
375.433,-0.76171875
375.443,-0.81298828125
375.453,-0.78857421875
375.463,-0.68115234375
375.473,-0.486328125
375.482,-0.2305908203125
375.492,0.016937255859375
375.502,0.18603515625
375.512,0.2548828125
375.522,0.245849609375
375.532,0.1873779296875
375.542,0.10546875
375.552,0.0291595458984375
375.562,-0.02557373046875
375.572,-0.06103515625
375.582,-0.07769775390625
375.592,-0.06671142578125
375.602,-0.023345947265625
375.612,0.039794921875
375.622,0.0863037109375
375.632,0.06793212890625
375.642,-0.037078857421875
375.652,-0.20068359375
375.662,-0.375
375.672,-0.529296875
375.68,-0.6494140625
375.69,-0.7177734375
375.7,-0.7119140625
375.71,-0.62744140625
375.72,-0.492919921875
375.73,-0.3408203125
375.74,-0.19189453125
375.75,-0.066650390625
375.76,0.0204010009765625
375.77,0.0792236328125
375.78,0.1243896484375
375.79,0.14892578125
375.8,0.1400146484375
375.81,0.10400390625
375.82,0.05975341796875
375.83,0.0142135620117188
375.84,-0.042022705078125
375.85,-0.1124267578125
375.86,-0.1793212890625
375.87,-0.2186279296875
375.879,-0.2275390625
375.889,-0.23046875
375.899,-0.251220703125
375.909,-0.28173828125
375.919,-0.2890625
375.929,-0.25390625
375.939,-0.1832275390625
375.949,-0.08782958984375
375.959,0.0257568359375
375.969,0.1407470703125
375.979,0.228515625
375.989,0.2724609375
375.999,0.2822265625
376.009,0.2744140625
376.019,0.2498779296875
376.029,0.1961669921875
376.039,0.11199951171875
376.049,0.0074310302734375
376.059,-0.11724853515625
376.069,-0.267578125
376.073,-0.3466796875
376.083,-0.1466064453125
376.093,0.036163330078125
376.103,0.1767578125
376.113,0.2493896484375
376.123,0.235595703125
376.133,0.1507568359375
376.143,0.036163330078125
376.153,-0.07183837890625
376.163,-0.1566162109375
376.173,-0.216064453125
376.183,-0.25
376.193,-0.255859375
376.203,-0.23779296875
376.213,-0.213623046875
376.223,-0.201904296875
376.232,-0.20849609375
376.242,-0.234375
376.252,-0.28173828125
376.262,-0.3486328125
376.272,-0.424072265625
376.282,-0.495361328125
376.292,-0.5537109375
376.302,-0.595703125
376.312,-0.6240234375
376.322,-0.64990234375
376.332,-0.6865234375
376.342,-0.74072265625
376.352,-0.81201171875
376.362,-0.91259765625
376.372,-1.0693359375
376.382,-1.2890625
376.392,-1.5556640625
376.402,-1.857421875
376.412,-2.185546875
376.422,-2.509765625
376.43,-2.775390625
376.44,-2.921875
376.45,-2.908203125
376.46,-2.74609375
376.47,-2.505859375
376.48,-2.265625
376.49,-2.052734375
376.5,-1.8583984375
376.51,-1.6845703125
376.52,-1.564453125
376.53,-1.4970703125
376.54,-1.4189453125
376.55,-1.2529296875
376.56,-1.0107421875
376.57,-0.8203125
376.58,-0.84130859375
376.59,-1.14453125
376.6,-1.6708984375
376.61,-2.27734375
376.62,-2.8125
376.629,-3.138671875
376.639,-3.16796875
376.649,-2.919921875
376.659,-2.51171875
376.669,-2.080078125
376.679,-1.7197265625
376.689,-1.46875
376.699,-1.3134765625
376.709,-1.216796875
376.719,-1.1298828125
376.729,-1.0224609375
376.739,-0.89453125
376.749,-0.77734375
376.759,-0.70263671875
376.769,-0.6806640625
376.779,-0.69384765625
376.789,-0.71044921875
376.799,-0.71142578125
376.809,-0.70361328125
376.819,-0.70458984375
376.823,-0.8994140625
376.833,-0.91943359375
376.843,-0.91552734375
376.853,-0.8916015625
376.863,-0.85498046875
376.873,-0.81396484375
376.883,-0.77685546875
376.893,-0.7509765625
376.903,-0.73876953125
376.913,-0.7373046875
376.923,-0.74072265625
376.933,-0.7392578125
376.943,-0.72705078125
376.953,-0.70947265625
376.963,-0.705078125
376.973,-0.72412109375
376.982,-0.76318359375
376.992,-0.80810546875
377.002,-0.8447265625
377.012,-0.865234375
377.022,-0.86767578125
377.032,-0.861328125
377.042,-0.8564453125
377.052,-0.85595703125
377.062,-0.85888671875
377.072,-0.8623046875
377.082,-0.8662109375
377.092,-0.87158203125
377.102,-0.8779296875
377.112,-0.890625
377.122,-0.91357421875
377.132,-0.9453125
377.142,-0.97705078125
377.152,-0.9990234375
377.162,-1.0009765625
377.172,-0.98193359375
377.18,-0.93994140625
377.19,-0.88232421875
377.2,-0.8193359375
377.21,-0.75634765625
377.22,-0.697265625
377.23,-0.650390625
377.24,-0.6181640625
377.25,-0.6025390625
377.26,-0.60693359375
377.27,-0.6259765625
377.28,-0.64892578125
377.29,-0.66796875
377.3,-0.6796875
377.31,-0.68896484375
377.32,-0.70263671875
377.33,-0.720703125
377.34,-0.7412109375
377.35,-0.7587890625
377.36,-0.76513671875
377.37,-0.75634765625
377.379,-0.7392578125
377.389,-0.72021484375
377.399,-0.70068359375
377.409,-0.68310546875
377.419,-0.6708984375
377.429,-0.66357421875
377.439,-0.66259765625
377.449,-0.673828125
377.459,-0.69677734375
377.469,-0.71630859375
377.479,-0.7177734375
377.489,-0.7021484375
377.499,-0.67529296875
377.509,-0.63623046875
377.519,-0.5859375
377.529,-0.5361328125
377.539,-0.498291015625
377.549,-0.474853515625
377.559,-0.4697265625
377.569,-0.49365234375
377.573,-0.787109375
377.583,-0.74755859375
377.593,-0.66552734375
377.603,-0.5634765625
377.613,-0.468017578125
377.623,-0.396728515625
377.633,-0.35107421875
377.643,-0.32958984375
377.653,-0.3349609375
377.663,-0.367919921875
377.673,-0.41796875
377.683,-0.462646484375
377.693,-0.482177734375
377.703,-0.474365234375
377.713,-0.44921875
377.723,-0.411865234375
377.732,-0.35693359375
377.742,-0.286865234375
377.752,-0.22412109375
377.762,-0.202880859375
377.772,-0.243896484375
377.782,-0.337158203125
377.792,-0.4501953125
377.802,-0.5478515625
377.812,-0.60888671875
377.822,-0.6318359375
377.832,-0.630859375
377.842,-0.60791015625
377.852,-0.54736328125
377.862,-0.455810546875
377.872,-0.373291015625
377.882,-0.344970703125
377.892,-0.38134765625
377.902,-0.45654296875
377.912,-0.53076171875
377.922,-0.5830078125
377.93,-0.6240234375
377.94,-0.67041015625
377.95,-0.70849609375
377.96,-0.69189453125
377.97,-0.5791015625
377.98,-0.381103515625
377.99,-0.174072265625
378,-0.03802490234375
378.01,0.0103302001953125
378.02,0.0101394653320312
378.03,0.004150390625
378.04,0.00647735595703125
378.05,0.0079498291015625
378.06,-0.000733852386474609
378.07,-0.0163116455078125
378.08,-0.02850341796875
378.09,-0.036407470703125
378.1,-0.05841064453125
378.11,-0.1107177734375
378.12,-0.179931640625
378.129,-0.2347412109375
378.139,-0.256103515625
378.149,-0.2493896484375
378.159,-0.228759765625
378.169,-0.20751953125
378.179,-0.199462890625
378.189,-0.2135009765625
378.199,-0.243408203125
378.209,-0.275390625
378.219,-0.293701171875
378.229,-0.276611328125
378.239,-0.2159423828125
378.249,-0.12457275390625
378.259,-0.0149307250976562
378.269,0.10931396484375
378.279,0.2320556640625
378.289,0.318115234375
378.299,0.3388671875
378.309,0.298095703125
378.319,0.2218017578125
378.323,-0.317626953125
378.333,-0.3798828125
378.343,-0.410400390625
378.353,-0.421875
378.363,-0.408447265625
378.373,-0.34375
378.383,-0.207763671875
378.393,-0.0280914306640625
378.403,0.1287841796875
378.413,0.2225341796875
378.423,0.2646484375
378.433,0.278564453125
378.443,0.2646484375
378.453,0.210693359375
378.463,0.11956787109375
378.473,0.0128326416015625
378.482,-0.0823974609375
378.492,-0.150390625
378.502,-0.19384765625
378.512,-0.2181396484375
378.522,-0.21533203125
378.532,-0.1787109375
378.542,-0.1270751953125
378.552,-0.09637451171875
378.562,-0.10650634765625
378.572,-0.142333984375
378.582,-0.1663818359375
378.592,-0.15283203125
378.602,-0.111572265625
378.612,-0.0709228515625
378.622,-0.0426025390625
378.632,-0.0177459716796875
378.642,0.0108261108398438
378.652,0.033050537109375
378.662,0.029022216796875
378.672,-0.0084228515625
378.68,-0.063232421875
378.69,-0.1138916015625
378.7,-0.150634765625
378.71,-0.169189453125
378.72,-0.160400390625
378.73,-0.11871337890625
378.74,-0.0487060546875
378.75,0.039459228515625
378.76,0.1285400390625
378.77,0.1961669921875
378.78,0.23291015625
378.79,0.2442626953125
378.8,0.2293701171875
378.81,0.1795654296875
378.82,0.10516357421875
378.83,0.0347900390625
378.84,-0.018157958984375
378.85,-0.0611572265625
378.86,-0.09417724609375
378.87,-0.1082763671875
378.879,-0.1029052734375
378.889,-0.0830078125
378.899,-0.05303955078125
378.909,-0.0216827392578125
378.919,0.00447463989257812
378.929,0.029571533203125
378.939,0.0577392578125
378.949,0.0784912109375
378.959,0.07562255859375
378.969,0.042755126953125
378.979,-0.011749267578125
378.989,-0.06793212890625
378.999,-0.10797119140625
379.009,-0.1259765625
379.019,-0.11981201171875
379.029,-0.0872802734375
379.039,-0.0433349609375
379.049,-0.0229644775390625
379.059,-0.05023193359375
379.069,-0.11578369140625
379.073,-0.318359375
379.083,-0.23876953125
379.093,-0.1458740234375
379.103,-0.04888916015625
379.113,0.05072021484375
379.123,0.12939453125
379.133,0.158203125
379.143,0.141357421875
379.153,0.10784912109375
379.163,0.0714111328125
379.173,0.032135009765625
379.183,-0.000356912612915039
379.193,-0.0185089111328125
379.203,-0.0301971435546875
379.213,-0.04254150390625
379.223,-0.053985595703125
379.231,-0.06463623046875
379.241,-0.07720947265625
379.251,-0.087158203125
379.261,-0.08551025390625
379.271,-0.0728759765625
379.281,-0.056396484375
379.291,-0.038299560546875
379.301,-0.02020263671875
379.311,-0.00295066833496094
379.321,0.0171356201171875
379.331,0.0396728515625
379.341,0.059234619140625
379.351,0.07562255859375
379.361,0.09210205078125
379.371,0.107666015625
379.381,0.114501953125
379.391,0.10369873046875
379.401,0.08038330078125
379.411,0.058135986328125
379.421,0.041046142578125
379.43,0.0343017578125
379.44,0.04888916015625
379.45,0.082275390625
379.46,0.12310791015625
379.47,0.166015625
379.48,0.2125244140625
379.49,0.2919921875
379.5,0.471435546875
379.51,0.779296875
379.52,1.1025390625
379.53,1.232421875
379.54,1.0380859375
379.55,0.56005859375
379.56,-0.049774169921875
379.57,-0.560546875
379.58,-0.73779296875
379.59,-0.5380859375
379.6,-0.1771240234375
379.61,0.0968017578125
379.62,0.2335205078125
379.629,0.341552734375
379.639,0.497802734375
379.649,0.63671875
379.659,0.61669921875
379.669,0.384521484375
379.679,0.060546875
379.689,-0.147216796875
379.699,-0.11834716796875
379.709,0.0631103515625
379.719,0.173583984375
379.729,0.043060302734375
379.739,-0.302001953125
379.749,-0.658203125
379.759,-0.78564453125
379.769,-0.5625
379.779,-0.076171875
379.789,0.4111328125
379.799,0.61181640625
379.809,0.39404296875
379.819,-0.137939453125
379.823,0.1068115234375
379.833,0.379638671875
379.843,0.263427734375
379.853,-0.184326171875
379.863,-0.7421875
379.873,-1.1240234375
379.883,-1.1201171875
379.893,-0.73095703125
379.903,-0.1815185546875
379.913,0.212646484375
379.923,0.2364501953125
379.933,-0.11376953125
379.943,-0.66748046875
379.953,-1.197265625
379.963,-1.5224609375
379.973,-1.578125
379.981,-1.40625
379.991,-1.115234375
380.001,-0.8154296875
380.011,-0.57861328125
380.021,-0.425537109375
380.031,-0.33740234375
380.041,-0.271728515625
380.051,-0.1942138671875
380.061,-0.09991455078125
380.071,-0.00589370727539062
380.081,0.06817626953125
380.091,0.1068115234375
380.101,0.09881591796875
380.111,0.044830322265625
380.121,-0.036041259765625
380.131,-0.11895751953125
380.141,-0.1851806640625
380.151,-0.218505859375
380.161,-0.204833984375
380.171,-0.14453125
380.18,-0.058563232421875
380.19,0.0256805419921875
380.2,0.09478759765625
380.21,0.1513671875
380.22,0.1995849609375
380.23,0.235595703125
380.24,0.24755859375
380.25,0.2216796875
380.26,0.14990234375
380.27,0.043670654296875
380.28,-0.06781005859375
380.29,-0.15966796875
380.3,-0.22265625
380.31,-0.251953125
380.32,-0.244384765625
380.33,-0.2034912109375
380.34,-0.1414794921875
380.35,-0.07244873046875
380.36,-0.00490188598632812
380.37,0.055419921875
380.379,0.09539794921875
380.389,0.10015869140625
380.399,0.07080078125
380.409,0.0206451416015625
380.419,-0.043365478515625
380.429,-0.1181640625
380.439,-0.188232421875
380.449,-0.2315673828125
380.459,-0.2392578125
380.469,-0.21533203125
380.479,-0.1669921875
380.489,-0.10296630859375
380.499,-0.03485107421875
380.509,0.0268707275390625
380.519,0.07476806640625
380.529,0.10162353515625
380.539,0.09893798828125
380.549,0.06329345703125
380.559,0.000708580017089844
380.569,-0.08038330078125
380.573,-0.41259765625
380.583,-0.40185546875
380.593,-0.332275390625
380.603,-0.2176513671875
380.613,-0.09326171875
380.623,0.0104598999023438
380.633,0.075927734375
380.643,0.0946044921875
380.653,0.07415771484375
380.663,0.039276123046875
380.673,0.00409317016601562
380.683,-0.03717041015625
380.693,-0.08355712890625
380.703,-0.12054443359375
380.713,-0.142578125
380.723,-0.156982421875
380.731,-0.16357421875
380.741,-0.15673828125
380.751,-0.1409912109375
380.761,-0.12371826171875
380.771,-0.10162353515625
380.781,-0.0723876953125
380.791,-0.040985107421875
380.801,-0.00919342041015625
380.811,0.023406982421875
380.821,0.049224853515625
380.831,0.057891845703125
380.841,0.050079345703125
380.851,0.03558349609375
380.861,0.0168914794921875
380.871,-0.0147552490234375
380.881,-0.06378173828125
380.891,-0.12457275390625
380.901,-0.188720703125
380.911,-0.244140625
380.921,-0.2734375
380.93,-0.267822265625
380.94,-0.2330322265625
380.95,-0.179443359375
380.96,-0.11737060546875
380.97,-0.057647705078125
380.98,-0.00754165649414062
380.99,0.03326416015625
381,0.064697265625
381.01,0.08319091796875
381.02,0.08905029296875
381.03,0.0860595703125
381.04,0.07440185546875
381.05,0.053802490234375
381.06,0.0308837890625
381.07,0.0127334594726562
381.08,-0.00412368774414062
381.09,-0.026580810546875
381.1,-0.05352783203125
381.11,-0.080810546875
381.12,-0.1075439453125
381.129,-0.1314697265625
381.139,-0.148193359375
381.149,-0.1551513671875
381.159,-0.151123046875
381.169,-0.13330078125
381.179,-0.1019287109375
381.189,-0.06597900390625
381.199,-0.043670654296875
381.209,-0.053924560546875
381.219,-0.10101318359375
381.229,-0.1632080078125
381.239,-0.207763671875
381.249,-0.208740234375
381.259,-0.1473388671875
381.269,-0.02239990234375
381.279,0.1322021484375
381.289,0.2568359375
381.299,0.302001953125
381.309,0.253173828125
381.319,0.1302490234375
381.323,-0.35400390625
381.333,-0.3671875
381.343,-0.362548828125
381.353,-0.340576171875
381.363,-0.31103515625
381.373,-0.283935546875
381.383,-0.255615234375
381.393,-0.2139892578125
381.403,-0.1590576171875
381.413,-0.1064453125
381.423,-0.0650634765625
381.433,-0.0231781005859375
381.443,0.035247802734375
381.453,0.10858154296875
381.463,0.1683349609375
381.473,0.1768798828125
381.481,0.1138916015625
381.491,-0.0162353515625
381.501,-0.1844482421875
381.511,-0.342529296875
381.521,-0.453125
381.531,-0.5068359375
381.541,-0.5048828125
381.551,-0.4443359375
381.561,-0.336669921875
381.571,-0.2156982421875
381.581,-0.12103271484375
381.591,-0.077392578125
381.601,-0.093505859375
381.611,-0.159912109375
381.621,-0.2437744140625
381.631,-0.302490234375
381.641,-0.303466796875
381.651,-0.233154296875
381.661,-0.1171875
381.671,-0.0134201049804688
381.68,0.0287933349609375
381.69,-0.00646591186523438
381.7,-0.1025390625
381.71,-0.22314453125
381.72,-0.333251953125
381.73,-0.410400390625
381.74,-0.443359375
381.75,-0.4287109375
381.76,-0.37060546875
381.77,-0.280029296875
381.78,-0.1700439453125
381.79,-0.055145263671875
381.8,0.04412841796875
381.81,0.100341796875
381.82,0.0902099609375
381.83,0.00922393798828125
381.84,-0.1268310546875
381.85,-0.288330078125
381.86,-0.439453125
381.87,-0.54931640625
381.879,-0.6005859375
381.889,-0.58984375
381.899,-0.52099609375
381.909,-0.407958984375
381.919,-0.267333984375
381.929,-0.1214599609375
381.939,-0.00188541412353516
381.949,0.062103271484375
381.959,0.06500244140625
381.969,0.025146484375
381.979,-0.031829833984375
381.989,-0.082763671875
381.999,-0.11224365234375
382.009,-0.11663818359375
382.019,-0.09649658203125
382.029,-0.0521240234375
382.039,0.00647354125976562
382.049,0.060546875
382.059,0.09576416015625
382.069,0.10345458984375
382.073,-0.3115234375
382.083,-0.340576171875
382.093,-0.28955078125
382.103,-0.158447265625
382.113,0.025299072265625
382.123,0.20849609375
382.133,0.338623046875
382.143,0.386962890625
382.153,0.3515625
382.163,0.2496337890625
382.173,0.1099853515625
382.183,-0.042938232421875
382.193,-0.1956787109375
382.203,-0.33935546875
382.213,-0.463623046875
382.223,-0.55322265625
382.231,-0.58935546875
382.241,-0.5595703125
382.251,-0.469482421875
382.261,-0.33349609375
382.271,-0.176513671875
382.281,-0.0289459228515625
382.291,0.0782470703125
382.301,0.12109375
382.311,0.0955810546875
382.321,0.0214080810546875
382.331,-0.0758056640625
382.341,-0.1763916015625
382.351,-0.263671875
382.361,-0.33349609375
382.371,-0.3974609375
382.381,-0.46533203125
382.391,-0.537109375
382.401,-0.6083984375
382.411,-0.669921875
382.421,-0.712890625
382.43,-0.724609375
382.44,-0.685546875
382.45,-0.5810546875
382.46,-0.43701171875
382.47,-0.345703125
382.48,-0.38623046875
382.49,-0.51513671875
382.5,-0.62255859375
382.51,-0.62841796875
382.52,-0.472412109375
382.53,-0.1407470703125
382.54,0.296142578125
382.55,0.7470703125
382.56,1.1416015625
382.57,1.404296875
382.58,1.478515625
382.59,1.3544921875
382.6,1.0341796875
382.61,0.55615234375
382.62,0.06658935546875
382.629,-0.236083984375
382.639,-0.29150390625
382.649,-0.2227783203125
382.659,-0.1712646484375
382.669,-0.165283203125
382.679,-0.1531982421875
382.689,-0.08612060546875
382.699,0.04833984375
382.709,0.2293701171875
382.719,0.425048828125
382.729,0.60107421875
382.739,0.70751953125
382.749,0.7060546875
382.759,0.60546875
382.769,0.43994140625
382.779,0.2293701171875
382.789,-0.0104751586914062
382.799,-0.2496337890625
382.809,-0.43896484375
382.819,-0.5205078125
382.823,0.27001953125
382.833,0.2091064453125
382.843,-0.04058837890625
382.853,-0.4208984375
382.863,-0.8115234375
382.873,-1.1025390625
382.883,-1.2255859375
382.893,-1.1298828125
382.903,-0.8193359375
382.913,-0.417236328125
382.923,-0.112060546875
382.933,-0.0255279541015625
382.943,-0.1378173828125
382.953,-0.322509765625
382.963,-0.445068359375
382.973,-0.427001953125
382.981,-0.26318359375
382.991,-0.0197906494140625
383.001,0.20751953125
383.011,0.351806640625
383.021,0.393310546875
383.031,0.34814453125
383.041,0.2371826171875
383.051,0.06201171875
383.061,-0.177490234375
383.071,-0.45263671875
383.081,-0.70703125
383.091,-0.88525390625
383.101,-0.96337890625
383.111,-0.95703125
383.121,-0.89013671875
383.131,-0.779296875
383.141,-0.63818359375
383.151,-0.481201171875
383.161,-0.334228515625
383.171,-0.231689453125
383.18,-0.2021484375
383.19,-0.261962890625
383.2,-0.41748046875
383.21,-0.65283203125
383.22,-0.9267578125
383.23,-1.193359375
383.24,-1.41015625
383.25,-1.53515625
383.26,-1.53515625
383.27,-1.42578125
383.28,-1.2578125
383.29,-1.083984375
383.3,-0.93701171875
383.31,-0.8330078125
383.32,-0.78369140625
383.33,-0.787109375
383.34,-0.826171875
383.35,-0.8798828125
383.36,-0.9208984375
383.37,-0.919921875
383.374,-0.58935546875
383.384,-0.619140625
383.394,-0.69873046875
383.404,-0.8017578125
383.414,-0.89794921875
383.424,-0.966796875
383.434,-0.99365234375
383.444,-0.96728515625
383.454,-0.8916015625
383.464,-0.791015625
383.474,-0.7001953125
383.484,-0.6474609375
383.494,-0.642578125
383.504,-0.67919921875
383.514,-0.7392578125
383.524,-0.8046875
383.532,-0.86328125
383.542,-0.9052734375
383.552,-0.9228515625
383.562,-0.9130859375
383.572,-0.88623046875
383.582,-0.8583984375
383.592,-0.83642578125
383.602,-0.822265625
383.612,-0.8125
383.622,-0.8017578125
383.632,-0.7900390625
383.642,-0.7841796875
383.652,-0.787109375
383.662,-0.794921875
383.672,-0.7998046875
383.682,-0.79638671875
383.692,-0.783203125
383.702,-0.7607421875
383.712,-0.7333984375
383.722,-0.7060546875
383.731,-0.681640625
383.741,-0.66845703125
383.751,-0.669921875
383.761,-0.67919921875
383.771,-0.685546875
383.781,-0.68505859375
383.791,-0.68212890625
383.801,-0.68359375
383.811,-0.6904296875
383.821,-0.7001953125
383.831,-0.70263671875
383.841,-0.693359375
383.851,-0.6796875
383.861,-0.68017578125
383.871,-0.70361328125
383.881,-0.74169921875
383.891,-0.7744140625
383.901,-0.77978515625
383.911,-0.74755859375
383.921,-0.68212890625
383.93,-0.603515625
383.94,-0.53173828125
383.95,-0.481689453125
383.96,-0.454345703125
383.97,-0.449951171875
383.98,-0.4736328125
383.99,-0.52734375
384,-0.599609375
384.01,-0.669921875
384.02,-0.71923828125
384.03,-0.736328125
384.04,-0.720703125
384.05,-0.67822265625
384.06,-0.61474609375
384.07,-0.533203125
384.08,-0.4501953125
384.09,-0.39306640625
384.1,-0.379150390625
384.11,-0.407958984375
384.12,-0.46484375
384.124,-0.3662109375
384.134,-0.3046875
384.144,-0.250732421875
384.154,-0.195556640625
384.164,-0.1334228515625
384.174,-0.0718994140625
384.184,-0.0306549072265625
384.194,-0.022247314453125
384.204,-0.037017822265625
384.214,-0.05621337890625
384.224,-0.06890869140625
384.234,-0.070556640625
384.244,-0.059478759765625
384.254,-0.038604736328125
384.264,-0.0129165649414062
384.274,0.014068603515625
384.282,0.0382080078125
384.292,0.050384521484375
384.302,0.039459228515625
384.312,0.00125026702880859
384.322,-0.05792236328125
384.332,-0.1219482421875
384.342,-0.17138671875
384.352,-0.19580078125
384.362,-0.1971435546875
384.372,-0.18310546875
384.382,-0.1630859375
384.392,-0.14453125
384.402,-0.13134765625
384.412,-0.12432861328125
384.422,-0.11956787109375
384.432,-0.10980224609375
384.442,-0.0931396484375
384.452,-0.07403564453125
384.462,-0.056915283203125
384.472,-0.0452880859375
384.481,-0.04107666015625
384.491,-0.04058837890625
384.501,-0.0423583984375
384.511,-0.05487060546875
384.521,-0.0863037109375
384.531,-0.1397705078125
384.541,-0.2186279296875
384.551,-0.31640625
384.561,-0.41259765625
384.571,-0.482177734375
384.581,-0.50244140625
384.591,-0.457275390625
384.601,-0.347900390625
384.611,-0.198486328125
384.621,-0.045135498046875
384.631,0.07647705078125
384.641,0.1407470703125
384.651,0.131591796875
384.661,0.041229248046875
384.671,-0.12030029296875
384.68,-0.3232421875
384.69,-0.5361328125
384.7,-0.7255859375
384.71,-0.8505859375
384.72,-0.8818359375
384.73,-0.80810546875
384.74,-0.626953125
384.75,-0.353271484375
384.76,-0.03802490234375
384.77,0.248779296875
384.78,0.450439453125
384.79,0.53955078125
384.8,0.515625
384.81,0.4033203125
384.82,0.2451171875
384.83,0.07867431640625
384.84,-0.06890869140625
384.85,-0.1722412109375
384.86,-0.218994140625
384.87,-0.2222900390625
384.874,-0.059967041015625
384.884,-0.003570556640625
384.894,0.05938720703125
384.904,0.11236572265625
384.914,0.1385498046875
384.924,0.1256103515625
384.934,0.06988525390625
384.944,-0.0138168334960938
384.954,-0.09326171875
384.964,-0.13623046875
384.974,-0.1285400390625
384.984,-0.08221435546875
384.994,-0.0279541015625
385.004,0.00533294677734375
385.014,0.0091094970703125
385.024,-0.007171630859375
385.032,-0.034942626953125
385.042,-0.0745849609375
385.052,-0.1220703125
385.062,-0.161865234375
385.072,-0.182373046875
385.082,-0.1827392578125
385.092,-0.1630859375
385.102,-0.1234130859375
385.112,-0.0731201171875
385.122,-0.031463623046875
385.132,-0.0157318115234375
385.142,-0.03265380859375
385.152,-0.07659912109375
385.162,-0.131591796875
385.172,-0.175048828125
385.182,-0.1898193359375
385.192,-0.1751708984375
385.202,-0.1376953125
385.212,-0.0821533203125
385.222,-0.0186309814453125
385.231,0.03375244140625
385.241,0.06085205078125
385.251,0.060699462890625
385.261,0.036895751953125
385.271,-0.00204849243164062
385.281,-0.03912353515625
385.291,-0.0623779296875
385.301,-0.07611083984375
385.311,-0.08648681640625
385.321,-0.0906982421875
385.331,-0.08538818359375
385.341,-0.0731201171875
385.351,-0.0596923828125
385.361,-0.051605224609375
385.371,-0.05389404296875
385.381,-0.06414794921875
385.391,-0.0743408203125
385.401,-0.07916259765625
385.411,-0.07305908203125
385.421,-0.048492431640625
385.43,-0.00921630859375
385.44,0.031951904296875
385.45,0.068603515625
385.46,0.095703125
385.47,0.098876953125
385.48,0.0626220703125
385.49,-0.01214599609375
385.5,-0.10369873046875
385.51,-0.18701171875
385.52,-0.2490234375
385.53,-0.282958984375
385.54,-0.280517578125
385.55,-0.2369384765625
385.56,-0.1629638671875
385.57,-0.08807373046875
385.58,-0.042327880859375
385.59,-0.0330810546875
385.6,-0.044677734375
385.61,-0.06134033203125
385.62,-0.08203125
385.624,-0.2578125
385.634,-0.286376953125
385.644,-0.27783203125
385.654,-0.2142333984375
385.664,-0.1123046875
385.674,-0.0166015625
385.684,0.036376953125
385.694,0.04559326171875
385.704,0.029754638671875
385.714,-0.00527572631835938
385.724,-0.0689697265625
385.734,-0.158447265625
385.744,-0.2447509765625
385.754,-0.29345703125
385.764,-0.2919921875
385.774,-0.251953125
385.782,-0.1893310546875
385.792,-0.11029052734375
385.802,-0.0221710205078125
385.812,0.0487060546875
385.822,0.06842041015625
385.832,0.02606201171875
385.842,-0.059478759765625
385.852,-0.1553955078125
385.862,-0.2294921875
385.872,-0.26025390625
385.882,-0.23779296875
385.892,-0.15966796875
385.902,-0.037200927734375
385.912,0.08953857421875
385.922,0.1572265625
385.932,0.1173095703125
385.942,-0.0275115966796875
385.952,-0.2286376953125
385.962,-0.424072265625
385.972,-0.5693359375
385.981,-0.65673828125
385.991,-0.69970703125
386.001,-0.69873046875
386.011,-0.63134765625
386.021,-0.4765625
386.031,-0.24658203125
386.041,-0.00576400756835938
386.051,0.16455078125
386.061,0.232177734375
386.071,0.225830078125
386.081,0.1822509765625
386.091,0.1158447265625
386.101,0.0290679931640625
386.111,-0.07684326171875
