Time,AccelerometerX
0.227,-0.57666015625
0.237,-0.5771484375
0.247,-0.5771484375
0.257,-0.5732421875
0.267,-0.5634765625
0.277,-0.548828125
0.287,-0.529296875
0.297,-0.505859375
0.307,-0.484375
0.317,-0.467041015625
0.327,-0.44873046875
0.337,-0.427978515625
0.347,-0.4091796875
0.357,-0.3994140625
0.367,-0.4072265625
0.377,-0.43505859375
0.387,-0.474853515625
0.397,-0.509765625
0.407,-0.5244140625
0.417,-0.51220703125
0.427,-0.482421875
0.437,-0.452392578125
0.447,-0.433349609375
0.457,-0.423828125
0.467,-0.41650390625
0.477,-0.405029296875
0.487,-0.389404296875
0.497,-0.37548828125
0.507,-0.372314453125
0.517,-0.382568359375
0.527,-0.39306640625
0.537,-0.388671875
0.547,-0.3740234375
0.557,-0.363525390625
0.567,-0.35498046875
0.577,-0.343505859375
0.587,-0.3369140625
0.597,-0.33740234375
0.607,-0.33447265625
0.617,-0.328857421875
0.621,-0.382568359375
0.631,-0.3759765625
0.641,-0.347412109375
0.651,-0.309814453125
0.661,-0.274658203125
0.671,-0.263427734375
0.681,-0.29150390625
0.691,-0.333984375
0.701,-0.352783203125
0.711,-0.339599609375
0.721,-0.30322265625
0.731,-0.261962890625
0.741,-0.2493896484375
0.751,-0.28857421875
0.761,-0.358642578125
0.771,-0.43359375
0.779,-0.513671875
0.789,-0.59521484375
0.799,-0.6640625
0.809,-0.7080078125
0.819,-0.69921875
0.829,-0.62109375
0.839,-0.5078125
0.849,-0.4013671875
0.859,-0.321044921875
0.869,-0.279296875
0.879,-0.27685546875
0.889,-0.290283203125
0.899,-0.2958984375
0.909,-0.298828125
0.919,-0.340087890625
0.929,-0.458740234375
0.939,-0.62744140625
0.949,-0.78955078125
0.959,-0.95068359375
0.969,-1.1318359375
0.978,-1.29296875
0.988,-1.392578125
0.998,-1.4248046875
1.008,-1.3896484375
1.018,-1.275390625
1.028,-1.0595703125
1.038,-0.7392578125
1.048,-0.358154296875
1.058,0.0111465454101562
1.068,0.31201171875
1.078,0.51123046875
1.088,0.60888671875
1.098,0.61669921875
1.108,0.53125
1.118,0.3818359375
1.128,0.2442626953125
1.138,0.1597900390625
1.148,0.120849609375
1.158,0.132080078125
1.168,0.1893310546875
1.177,0.273681640625
1.187,0.39697265625
1.197,0.529296875
1.207,0.56640625
1.217,0.4541015625
1.227,0.2578125
1.237,0.09918212890625
1.247,0.06011962890625
1.257,0.13037109375
1.267,0.2457275390625
1.277,0.33349609375
1.287,0.333740234375
1.297,0.235107421875
1.307,0.06768798828125
1.317,-0.11529541015625
1.327,-0.2392578125
1.337,-0.28369140625
1.347,-0.31396484375
1.357,-0.34228515625
1.367,-0.281494140625
1.372,0.85595703125
1.382,0.96337890625
1.392,0.95556640625
1.402,0.84814453125
1.412,0.62646484375
1.422,0.2998046875
1.432,-0.0662841796875
1.442,-0.413818359375
1.452,-0.72265625
1.462,-0.97021484375
1.472,-1.130859375
1.482,-1.2109375
1.492,-1.251953125
1.502,-1.2802734375
1.512,-1.2958984375
1.522,-1.30078125
1.529,-1.3193359375
1.539,-1.3466796875
1.549,-1.3076171875
1.559,-1.1474609375
1.569,-0.931640625
1.579,-0.76123046875
1.589,-0.61279296875
1.599,-0.39111328125
1.609,-0.10650634765625
1.619,0.125
1.629,0.255126953125
1.639,0.35595703125
1.649,0.4921875
1.659,0.619140625
1.669,0.6240234375
1.679,0.447265625
1.689,0.1429443359375
1.699,-0.158447265625
1.709,-0.34326171875
1.719,-0.3955078125
1.728,-0.38037109375
1.738,-0.337890625
1.748,-0.245849609375
1.758,-0.1043701171875
1.768,0.0107192993164062
1.778,0.00513839721679688
1.788,-0.1575927734375
1.798,-0.430419921875
1.808,-0.6943359375
1.818,-0.822265625
1.828,-0.78466796875
1.838,-0.669921875
1.848,-0.56640625
1.858,-0.48095703125
1.868,-0.393310546875
1.878,-0.305908203125
1.888,-0.2242431640625
1.898,-0.170654296875
1.908,-0.1904296875
1.918,-0.283203125
1.927,-0.37158203125
1.937,-0.3857421875
1.947,-0.33154296875
1.957,-0.251953125
1.967,-0.2017822265625
1.977,-0.25146484375
1.987,-0.417236328125
1.997,-0.615234375
2.007,-0.7490234375
2.017,-0.77734375
2.027,-0.69384765625
2.037,-0.541015625
2.047,-0.416015625
2.057,-0.38330078125
2.067,-0.418701171875
2.077,-0.46875
2.087,-0.517578125
2.097,-0.580078125
2.107,-0.65771484375
2.117,-0.732421875
2.121,-0.525390625
2.131,-0.456787109375
2.141,-0.39892578125
2.151,-0.38720703125
2.161,-0.429931640625
2.171,-0.492431640625
2.181,-0.5537109375
2.191,-0.59619140625
2.201,-0.5859375
2.211,-0.5205078125
2.221,-0.44140625
2.231,-0.367431640625
2.241,-0.273193359375
2.251,-0.138671875
2.261,0.024139404296875
2.271,0.1932373046875
2.279,0.350341796875
2.289,0.467041015625
2.299,0.50146484375
2.309,0.4287109375
2.319,0.2724609375
2.329,0.07366943359375
2.339,-0.1663818359375
2.349,-0.44140625
2.359,-0.69873046875
2.369,-0.90966796875
2.379,-1.10546875
2.389,-1.2880859375
2.399,-1.4140625
2.409,-1.49609375
2.419,-1.5556640625
2.429,-1.53515625
2.439,-1.3955078125
2.449,-1.1865234375
2.459,-0.98388671875
2.469,-0.84375
2.478,-0.798828125
2.488,-0.83740234375
2.498,-0.90380859375
2.508,-0.94384765625
2.518,-0.90478515625
2.528,-0.75244140625
2.538,-0.52001953125
2.548,-0.2744140625
2.558,-0.0594482421875
2.568,0.0770263671875
2.578,0.0792236328125
2.588,-0.06964111328125
2.598,-0.319091796875
2.608,-0.591796875
2.618,-0.826171875
2.628,-0.98876953125
2.638,-1.0712890625
2.648,-1.060546875
2.658,-0.9453125
2.668,-0.7529296875
2.673,-0.06683349609375
2.683,-0.177734375
2.693,-0.34423828125
2.703,-0.51171875
2.713,-0.62646484375
2.723,-0.669921875
2.733,-0.642578125
2.743,-0.556640625
2.753,-0.45166015625
2.763,-0.369140625
2.773,-0.32666015625
2.783,-0.3408203125
2.793,-0.420166015625
2.803,-0.51416015625
2.813,-0.54833984375
2.823,-0.51416015625
2.837,-0.452880859375
2.847,-0.384765625
2.857,-0.324462890625
2.867,-0.3232421875
2.877,-0.41357421875
2.887,-0.5556640625
2.897,-0.70703125
2.907,-0.86279296875
2.917,-1.009765625
2.927,-1.10546875
2.937,-1.0810546875
2.947,-0.8876953125
2.957,-0.56005859375
2.967,-0.18408203125
2.977,0.1689453125
2.987,0.43408203125
2.997,0.55029296875
3.007,0.50830078125
3.017,0.346923828125
3.027,0.1163330078125
3.036,-0.11956787109375
3.046,-0.303955078125
3.056,-0.444580078125
3.066,-0.59326171875
3.076,-0.75390625
3.086,-0.8798828125
3.096,-0.95947265625
3.106,-1.01171875
3.116,-1.01953125
3.126,-0.92529296875
3.136,-0.685546875
3.146,-0.346435546875
3.156,-0.0233612060546875
3.166,0.20458984375
3.176,0.33740234375
3.186,0.3818359375
3.196,0.30224609375
3.206,0.0889892578125
3.216,-0.1971435546875
3.226,-0.49609375
3.238,-0.77197265625
3.248,-0.97314453125
3.258,-1.052734375
3.268,-1.0185546875
3.278,-0.93017578125
3.288,-0.85986328125
3.298,-0.85009765625
3.308,-0.87109375
3.318,-0.8564453125
3.328,-0.79296875
3.338,-0.7216796875
3.348,-0.66796875
3.358,-0.63037109375
3.368,-0.60791015625
3.378,-0.58154296875
3.388,-0.5009765625
3.398,-0.335693359375
3.408,-0.1217041015625
3.418,0.06549072265625
3.428,0.16943359375
3.431,-0.1011962890625
3.441,-0.27978515625
3.451,-0.414306640625
3.461,-0.49267578125
3.471,-0.55419921875
3.481,-0.64501953125
3.491,-0.7734375
3.501,-0.904296875
3.511,-0.9853515625
3.521,-0.99169921875
3.531,-0.947265625
3.541,-0.8896484375
3.551,-0.83837890625
3.561,-0.78857421875
3.571,-0.72802734375
3.581,-0.65576171875
3.591,-0.5986328125
3.601,-0.59228515625
3.624,-0.630859375
3.634,-0.68505859375
3.644,-0.73876953125
3.654,-0.76953125
3.664,-0.7138671875
3.674,-0.51123046875
3.684,-0.1954345703125
3.694,0.1138916015625
3.704,0.316162109375
3.714,0.390625
3.724,0.3642578125
3.734,0.27197265625
3.744,0.1485595703125
3.754,0.0067138671875
3.764,-0.2003173828125
3.774,-0.5244140625
3.784,-0.919921875
3.794,-1.2666015625
3.804,-1.4921875
3.814,-1.5869140625
3.828,-1.5302734375
3.838,-1.3369140625
3.848,-1.0966796875
3.858,-0.89794921875
3.868,-0.74609375
3.878,-0.580078125
3.888,-0.377197265625
3.898,-0.1824951171875
3.908,-0.000383138656616211
3.918,0.21923828125
3.928,0.4765625
3.938,0.69287109375
3.948,0.7607421875
3.958,0.61083984375
3.968,0.262939453125
3.978,-0.18408203125
3.988,-0.6298828125
3.998,-1.0517578125
4.008,-1.466796875
4.018,-1.833984375
4.027,0.018310546875
4.037,0.341796875
4.047,0.495361328125
4.057,0.43408203125
4.067,0.193115234375
4.077,-0.11126708984375
4.087,-0.3740234375
4.097,-0.5615234375
4.107,-0.68505859375
4.117,-0.734375
4.127,-0.693359375
4.137,-0.61669921875
4.147,-0.60107421875
4.157,-0.66796875
4.167,-0.72802734375
4.176,-0.6748046875
4.186,-0.5048828125
4.196,-0.287109375
4.206,-0.0621337890625
4.216,0.1932373046875
4.226,0.50537109375
4.236,0.80810546875
4.246,0.93994140625
4.256,0.806640625
4.266,0.492431640625
4.276,0.1640625
4.286,-0.098876953125
4.296,-0.34814453125
4.306,-0.61572265625
4.316,-0.82666015625
4.326,-0.935546875
4.336,-0.99072265625
4.346,-1.0673828125
4.356,-1.220703125
4.366,-1.4287109375
4.374,-1.5888671875
4.384,-1.6611328125
4.394,-1.6904296875
4.404,-1.72265625
4.414,-1.7900390625
4.424,-1.8681640625
4.434,-1.869140625
4.444,-1.775390625
4.454,-1.662109375
4.464,-1.6025390625
4.474,-1.6298828125
4.484,-1.703125
4.494,-1.7294921875
4.504,-1.6806640625
4.514,-1.6005859375
4.524,-1.5283203125
4.534,-1.453125
4.544,-1.3095703125
4.554,-1.048828125
4.564,-0.7373046875
4.576,-0.50390625
4.586,-0.40771484375
4.596,-0.3857421875
4.606,-0.329833984375
4.616,-0.1905517578125
4.626,-0.00354766845703125
4.636,0.1705322265625
4.646,0.295166015625
4.656,0.3544921875
4.666,0.318359375
4.676,0.160400390625
4.686,-0.0908203125
4.696,-0.379150390625
4.706,-0.66796875
4.716,-0.9375
4.726,-1.171875
4.736,-1.3466796875
4.746,-1.4296875
4.756,-1.3916015625
4.766,-1.216796875
4.772,0.0192413330078125
4.782,0.150390625
4.792,0.2384033203125
4.802,0.22314453125
4.812,0.03582763671875
4.822,-0.30908203125
4.832,-0.689453125
4.842,-0.998046875
4.852,-1.2109375
4.862,-1.35546875
4.872,-1.486328125
4.882,-1.625
4.892,-1.7275390625
4.902,-1.771484375
4.912,-1.76953125
4.922,-1.72265625
4.928,-1.634765625
4.938,-1.51171875
4.948,-1.3662109375
4.958,-1.2763671875
4.968,-1.3017578125
4.978,-1.3984375
4.988,-1.5
4.998,-1.556640625
5.008,-1.5458984375
5.018,-1.5048828125
5.028,-1.46875
5.038,-1.4228515625
5.048,-1.35546875
5.058,-1.2744140625
5.068,-1.2080078125
5.078,-1.2275390625
5.088,-1.3720703125
5.098,-1.599609375
5.108,-1.8544921875
5.118,-2.0859375
5.127,-2.228515625
5.137,-2.251953125
5.147,-2.177734375
5.157,-2.04296875
5.167,-1.90234375
5.177,-1.7724609375
5.187,-1.658203125
5.197,-1.599609375
5.207,-1.6298828125
5.217,-1.734375
5.227,-1.8896484375
5.237,-2.09375
5.247,-2.314453125
5.257,-2.439453125
5.267,-2.369140625
5.277,-2.12109375
5.287,-1.7626953125
5.297,-1.3232421875
5.307,-0.841796875
5.317,-0.368408203125
5.457,0.08038330078125
5.467,0.47509765625
5.477,0.73779296875
5.487,0.802734375
5.497,0.6572265625
5.507,0.323974609375
5.517,-0.1424560546875
5.527,-0.6728515625
5.537,-1.212890625
5.547,-1.6982421875
5.557,-2.064453125
5.567,-2.302734375
5.577,-2.419921875
5.587,-2.375
5.597,-2.16796875
5.607,-1.875
5.617,-1.54296875
5.627,-1.1640625
5.637,-0.7529296875
5.647,-0.364501953125
5.651,-0.440185546875
5.661,-0.78662109375
5.671,-1.0703125
5.681,-1.2099609375
5.691,-1.2021484375
5.701,-1.111328125
5.711,-0.96923828125
5.721,-0.7509765625
5.731,-0.458984375
5.741,-0.1453857421875
5.751,0.114990234375
5.761,0.2462158203125
5.771,0.1964111328125
5.781,-0.00559616088867188
5.791,-0.272216796875
5.801,-0.53857421875
5.809,-0.7548828125
5.819,-0.849609375
5.829,-0.7763671875
5.839,-0.568359375
5.849,-0.32666015625
5.859,-0.154541015625
5.869,-0.09478759765625
5.879,-0.1455078125
5.889,-0.269287109375
5.899,-0.37548828125
5.909,-0.367431640625
5.919,-0.237060546875
5.929,-0.091796875
5.939,-0.047119140625
5.949,-0.11700439453125
5.959,-0.246826171875
5.969,-0.391845703125
5.979,-0.525390625
5.989,-0.61962890625
5.999,-0.6513671875
6.008,-0.63134765625
6.018,-0.6015625
6.028,-0.591796875
6.038,-0.6005859375
6.048,-0.619140625
6.058,-0.6533203125
6.068,-0.70458984375
6.078,-0.73193359375
6.088,-0.67529296875
6.098,-0.5390625
6.108,-0.41064453125
6.118,-0.365966796875
6.128,-0.391357421875
6.138,-0.4169921875
6.148,-0.39404296875
6.158,-0.341064453125
6.168,-0.306396484375
6.178,-0.2880859375
6.188,-0.2427978515625
6.198,-0.1715087890625
6.207,-0.135009765625
6.217,-0.178466796875
6.227,-0.25048828125
6.237,-0.2340087890625
6.247,-0.0848388671875
6.257,0.08966064453125
6.267,0.14892578125
6.277,0.06915283203125
6.287,-0.0694580078125
6.297,-0.1806640625
6.307,-0.243896484375
6.317,-0.300048828125
6.327,-0.365478515625
6.337,-0.40234375
6.347,-0.381103515625
6.357,-0.326171875
6.367,-0.291015625
6.377,-0.30224609375
6.387,-0.333251953125
6.397,-0.334716796875
6.401,0.04412841796875
6.411,0.20751953125
6.421,0.35986328125
6.431,0.43994140625
6.441,0.408447265625
6.451,0.295654296875
6.461,0.2115478515625
6.471,0.225830078125
6.481,0.277099609375
6.491,0.2666015625
6.501,0.1749267578125
6.511,0.0350341796875
6.521,-0.130859375
6.531,-0.30615234375
6.541,-0.461181640625
6.551,-0.5693359375
6.559,-0.6171875
6.569,-0.6005859375
6.579,-0.5517578125
6.589,-0.52587890625
6.599,-0.5498046875
6.609,-0.6123046875
6.619,-0.6796875
6.629,-0.71923828125
6.639,-0.7353515625
6.649,-0.76025390625
6.659,-0.8037109375
6.669,-0.84765625
6.679,-0.8779296875
6.689,-0.8935546875
6.699,-0.89794921875
6.709,-0.88330078125
6.719,-0.82861328125
6.729,-0.72705078125
6.739,-0.607421875
6.749,-0.505859375
6.758,-0.428466796875
6.768,-0.348876953125
6.778,-0.247802734375
6.788,-0.160400390625
6.798,-0.15771484375
6.808,-0.26220703125
6.818,-0.421630859375
6.828,-0.5693359375
6.838,-0.681640625
6.848,-0.77978515625
6.858,-0.8828125
6.868,-0.96337890625
6.878,-0.982421875
6.888,-0.94580078125
6.898,-0.88232421875
6.908,-0.802734375
6.918,-0.6923828125
6.928,-0.544921875
6.938,-0.3994140625
6.948,-0.305419921875
6.957,-0.257568359375
6.967,-0.20263671875
6.977,-0.10150146484375
6.987,0.036468505859375
6.997,0.1676025390625
7.007,0.2442626953125
7.017,0.2471923828125
7.027,0.1942138671875
7.037,0.10272216796875
7.047,-0.0301971435546875
7.057,-0.1954345703125
7.067,-0.362060546875
7.077,-0.49951171875
7.087,-0.5908203125
7.097,-0.65478515625
7.107,-0.73046875
7.117,-0.82373046875
7.127,-0.9033203125
7.137,-0.9287109375
7.147,-0.8759765625
7.152,0.1927490234375
7.162,0.408935546875
7.172,0.5537109375
7.182,0.60498046875
7.192,0.57373046875
7.202,0.485595703125
7.212,0.36962890625
7.222,0.271484375
7.232,0.2279052734375
7.242,0.227783203125
7.252,0.237060546875
7.262,0.2342529296875
7.272,0.1983642578125
7.282,0.11993408203125
7.292,0.018768310546875
7.302,-0.09783935546875
7.309,-0.2469482421875
7.319,-0.435302734375
7.329,-0.650390625
7.339,-0.85546875
7.349,-0.99560546875
7.359,-1.029296875
7.369,-0.95458984375
7.379,-0.7978515625
7.389,-0.59912109375
7.399,-0.38720703125
7.409,-0.1607666015625
7.419,0.052886962890625
7.429,0.163818359375
7.439,0.11328125
7.449,-0.050201416015625
7.459,-0.2314453125
7.469,-0.369384765625
7.479,-0.460205078125
7.489,-0.54150390625
7.499,-0.64306640625
7.508,-0.75341796875
7.518,-0.8515625
7.528,-0.92041015625
7.538,-0.94189453125
7.548,-0.91796875
7.558,-0.88134765625
7.568,-0.88916015625
7.578,-0.99560546875
7.588,-1.1943359375
7.598,-1.4013671875
7.608,-1.5244140625
7.618,-1.53125
7.628,-1.404296875
7.638,-1.1318359375
7.648,-0.7724609375
7.658,-0.414794921875
7.668,-0.104248046875
7.678,0.14501953125
7.688,0.306396484375
7.698,0.356689453125
7.707,0.290283203125
7.717,0.12091064453125
7.727,-0.109619140625
7.737,-0.351318359375
7.747,-0.56591796875
7.757,-0.7236328125
7.767,-0.8037109375
7.777,-0.7890625
7.787,-0.6865234375
7.797,-0.5546875
7.807,-0.4677734375
7.817,-0.44482421875
7.827,-0.45166015625
7.837,-0.443603515625
7.847,-0.397705078125
7.857,-0.332763671875
7.867,-0.2802734375
7.877,-0.2371826171875
7.887,-0.19384765625
7.897,-0.168212890625
7.901,-0.033660888671875
7.911,0.0298004150390625
7.921,0.0882568359375
7.931,0.1368408203125
7.941,0.1708984375
7.951,0.1875
7.961,0.192138671875
7.971,0.1947021484375
7.981,0.1885986328125
7.991,0.1566162109375
8.001,0.09747314453125
8.011,0.02508544921875
8.021,-0.053314208984375
8.031,-0.1495361328125
8.041,-0.277099609375
8.051,-0.421630859375
8.059,-0.55029296875
8.069,-0.64404296875
8.079,-0.6953125
8.089,-0.6904296875
8.099,-0.630859375
8.109,-0.55224609375
8.119,-0.494873046875
8.129,-0.46435546875
8.139,-0.43603515625
8.149,-0.402099609375
8.159,-0.380859375
8.169,-0.38525390625
8.179,-0.41259765625
8.189,-0.462158203125
8.199,-0.53173828125
8.209,-0.6025390625
8.219,-0.6474609375
8.229,-0.65869140625
8.239,-0.6357421875
8.249,-0.56494140625
8.258,-0.445068359375
8.268,-0.309814453125
8.278,-0.2056884765625
8.288,-0.15673828125
8.298,-0.17138671875
8.308,-0.256103515625
8.318,-0.387939453125
8.328,-0.493408203125
8.338,-0.50146484375
8.348,-0.41259765625
8.358,-0.281494140625
8.368,-0.1590576171875
8.378,-0.0711669921875
8.388,-0.0245208740234375
8.398,-0.0100021362304688
8.408,-0.0157470703125
8.418,-0.037841796875
8.428,-0.08026123046875
8.438,-0.155517578125
8.448,-0.260498046875
8.453,-0.572265625
8.463,-0.57568359375
8.473,-0.58544921875
8.483,-0.6025390625
8.493,-0.6240234375
8.503,-0.6572265625
8.513,-0.705078125
8.523,-0.75634765625
8.533,-0.80419921875
8.543,-0.841796875
8.553,-0.85498046875
8.563,-0.8330078125
8.573,-0.7880859375
8.583,-0.75244140625
8.593,-0.7353515625
8.603,-0.7060546875
8.61,-0.64404296875
8.62,-0.560546875
8.63,-0.467041015625
8.64,-0.37939453125
8.65,-0.326416015625
8.66,-0.335693359375
8.67,-0.413330078125
8.68,-0.5341796875
8.69,-0.66650390625
8.7,-0.79296875
8.71,-0.90087890625
8.72,-0.978515625
8.73,-1.0048828125
8.74,-0.9638671875
8.75,-0.85400390625
8.76,-0.689453125
8.77,-0.505859375
8.78,-0.349853515625
8.79,-0.259765625
8.8,-0.255126953125
8.809,-0.337646484375
8.819,-0.492431640625
8.829,-0.67626953125
8.839,-0.82373046875
8.849,-0.890625
8.859,-0.8671875
8.869,-0.75439453125
8.879,-0.57275390625
8.889,-0.37158203125
8.899,-0.2044677734375
8.909,-0.1007080078125
8.919,-0.060333251953125
8.929,-0.06982421875
8.939,-0.1080322265625
8.949,-0.14208984375
8.959,-0.151611328125
8.969,-0.1441650390625
8.979,-0.134521484375
8.989,-0.135009765625
8.999,-0.152587890625
9.008,-0.1842041015625
9.018,-0.229736328125
9.028,-0.302001953125
9.038,-0.418701171875
9.048,-0.57470703125
9.058,-0.734375
9.068,-0.8623046875
9.078,-0.93505859375
9.088,-0.931640625
9.098,-0.8603515625
9.108,-0.7685546875
9.118,-0.71826171875
9.128,-0.7412109375
9.138,-0.82177734375
9.148,-0.923828125
9.158,-0.998046875
9.168,-0.98095703125
9.178,-0.8447265625
9.188,-0.62646484375
9.198,-0.389892578125
9.203,0.09814453125
9.213,0.040679931640625
9.223,-0.06158447265625
9.233,-0.2066650390625
9.243,-0.388916015625
9.253,-0.59228515625
9.263,-0.7958984375
9.273,-0.97021484375
9.283,-1.0849609375
9.293,-1.130859375
9.303,-1.12109375
9.313,-1.0771484375
9.323,-1.009765625
9.333,-0.91162109375
9.343,-0.7822265625
9.353,-0.63525390625
9.36,-0.489013671875
9.37,-0.368408203125
9.38,-0.310302734375
9.39,-0.3515625
9.4,-0.495361328125
9.41,-0.69091796875
9.42,-0.87353515625
9.43,-0.9990234375
9.44,-1.0341796875
9.45,-0.97314453125
9.46,-0.84912109375
9.47,-0.7177734375
9.48,-0.619140625
9.49,-0.56201171875
9.5,-0.541015625
9.51,-0.548828125
9.52,-0.5712890625
9.53,-0.6044921875
9.54,-0.65869140625
9.55,-0.73828125
9.559,-0.8251953125
9.569,-0.8759765625
9.579,-0.85791015625
9.589,-0.76513671875
9.599,-0.6025390625
9.609,-0.392822265625
9.619,-0.1876220703125
9.629,-0.039581298828125
9.639,0.026580810546875
9.649,0.01727294921875
9.659,-0.0594482421875
9.669,-0.1993408203125
9.679,-0.375244140625
9.689,-0.546875
9.699,-0.69091796875
9.709,-0.8046875
9.719,-0.88330078125
9.729,-0.91015625
9.739,-0.8876953125
9.749,-0.83349609375
9.758,-0.7548828125
9.768,-0.6513671875
9.778,-0.53564453125
9.788,-0.443115234375
9.798,-0.40087890625
9.808,-0.40185546875
9.818,-0.411376953125
9.828,-0.402099609375
9.838,-0.383544921875
9.848,-0.3701171875
9.858,-0.330810546875
9.868,-0.225341796875
9.878,-0.07452392578125
9.888,0.044586181640625
9.898,0.07403564453125
9.908,0.01800537109375
9.918,-0.09600830078125
9.928,-0.2403564453125
9.938,-0.37841796875
9.948,-0.475830078125
9.953,-0.126953125
9.963,0.022552490234375
9.973,0.16015625
9.983,0.26513671875
9.993,0.32177734375
10.003,0.3154296875
10.013,0.2410888671875
10.023,0.11212158203125
10.033,-0.03857421875
10.043,-0.162841796875
10.053,-0.2379150390625
10.063,-0.28564453125
10.073,-0.331298828125
10.083,-0.370849609375
10.093,-0.372802734375
10.103,-0.32275390625
10.11,-0.260009765625
10.12,-0.239013671875
10.13,-0.28125
10.14,-0.371826171875
10.15,-0.491943359375
10.16,-0.6298828125
10.17,-0.77099609375
10.18,-0.89306640625
10.19,-0.97119140625
10.2,-0.9912109375
10.21,-0.966796875
10.22,-0.91357421875
10.23,-0.8369140625
10.24,-0.73046875
10.25,-0.603515625
10.26,-0.49658203125
10.27,-0.44775390625
10.28,-0.45751953125
10.29,-0.4990234375
10.3,-0.5537109375
10.309,-0.6181640625
10.319,-0.6826171875
10.329,-0.73046875
10.339,-0.73095703125
10.349,-0.6640625
10.359,-0.55126953125
10.369,-0.4365234375
10.379,-0.345458984375
10.389,-0.25634765625
10.399,-0.134765625
10.409,0.00574111938476562
10.419,0.11346435546875
10.429,0.15966796875
10.439,0.1673583984375
10.449,0.1795654296875
10.459,0.2147216796875
10.469,0.254150390625
10.479,0.272216796875
10.489,0.2783203125
10.499,0.300537109375
10.508,0.3330078125
10.518,0.333740234375
10.528,0.272216796875
10.538,0.16796875
10.548,0.06744384765625
10.558,-0.006805419921875
10.568,-0.07513427734375
10.578,-0.1673583984375
10.588,-0.27490234375
10.598,-0.352783203125
10.608,-0.374267578125
10.618,-0.36328125
10.628,-0.362060546875
10.638,-0.386962890625
10.648,-0.42529296875
10.658,-0.465087890625
10.668,-0.52197265625
10.678,-0.6181640625
10.688,-0.75927734375
10.698,-0.92041015625
10.703,-0.85400390625
10.713,-0.72705078125
10.723,-0.59521484375
10.733,-0.4990234375
10.743,-0.48486328125
10.753,-0.55859375
10.763,-0.66259765625
10.773,-0.7392578125
10.783,-0.78173828125
10.793,-0.82958984375
10.803,-0.921875
10.813,-1.0380859375
10.823,-1.103515625
10.833,-1.0625
10.843,-0.92724609375
10.853,-0.77197265625
10.86,-0.67138671875
10.87,-0.63671875
10.88,-0.6220703125
10.89,-0.5927734375
10.9,-0.55810546875
10.91,-0.54443359375
10.92,-0.568359375
10.93,-0.6357421875
10.94,-0.7392578125
10.95,-0.8251953125
10.96,-0.80517578125
10.97,-0.65673828125
10.98,-0.4736328125
10.99,-0.391845703125
11,-0.47314453125
11.01,-0.66357421875
11.02,-0.8359375
11.03,-0.87548828125
11.04,-0.74951171875
11.05,-0.50341796875
11.059,-0.2005615234375
11.069,0.125
11.079,0.449462890625
11.089,0.72021484375
11.099,0.86572265625
11.109,0.8408203125
11.119,0.66357421875
11.129,0.40576171875
11.139,0.145263671875
11.149,-0.0657958984375
11.159,-0.2030029296875
11.169,-0.265869140625
11.179,-0.27734375
11.189,-0.270751953125
11.199,-0.256591796875
11.209,-0.22119140625
11.219,-0.1683349609375
11.229,-0.12347412109375
11.239,-0.109619140625
11.249,-0.1424560546875
11.258,-0.2158203125
11.268,-0.30419921875
11.278,-0.398681640625
11.288,-0.4970703125
11.298,-0.576171875
11.308,-0.6142578125
11.318,-0.603515625
11.328,-0.54443359375
11.338,-0.4521484375
11.348,-0.3466796875
11.358,-0.2432861328125
11.368,-0.185302734375
11.378,-0.2144775390625
11.388,-0.3095703125
11.398,-0.406982421875
11.408,-0.450927734375
11.418,-0.40771484375
11.428,-0.2666015625
11.438,-0.037994384765625
11.448,0.2373046875
11.453,0.5185546875
11.463,0.304931640625
11.473,0.07330322265625
11.483,-0.1385498046875
11.493,-0.318359375
11.503,-0.466064453125
11.513,-0.5869140625
11.523,-0.6875
11.533,-0.73486328125
11.543,-0.67626953125
11.553,-0.53173828125
11.563,-0.387939453125
11.573,-0.294677734375
11.583,-0.2379150390625
11.593,-0.19580078125
11.603,-0.1533203125
11.61,-0.099853515625
11.62,-0.042266845703125
11.63,-0.000843524932861328
11.64,0.0169830322265625
11.65,0.023651123046875
11.66,0.0296173095703125
11.67,0.03314208984375
11.68,0.037445068359375
11.69,0.048583984375
11.7,0.049957275390625
11.71,0.0194549560546875
11.72,-0.034942626953125
11.73,-0.10247802734375
11.74,-0.19580078125
11.75,-0.30908203125
11.76,-0.403564453125
11.77,-0.4609375
11.78,-0.494873046875
11.79,-0.51416015625
11.8,-0.52099609375
11.809,-0.5234375
11.819,-0.53125
11.829,-0.55029296875
11.839,-0.587890625
11.849,-0.6396484375
11.859,-0.68212890625
11.869,-0.69775390625
11.879,-0.6962890625
11.889,-0.70361328125
11.899,-0.7158203125
11.909,-0.7021484375
11.919,-0.64990234375
11.929,-0.5830078125
11.939,-0.5283203125
11.949,-0.494384765625
11.959,-0.49658203125
11.969,-0.55908203125
11.979,-0.67529296875
11.989,-0.80078125
11.999,-0.9013671875
12.008,-0.97705078125
12.018,-1.0224609375
12.028,-1.009765625
12.038,-0.93017578125
12.048,-0.8212890625
12.058,-0.74169921875
12.068,-0.71484375
12.078,-0.73046875
12.088,-0.78759765625
12.098,-0.89501953125
12.108,-1.01953125
12.118,-1.0947265625
12.128,-1.0888671875
12.138,-1.0185546875
12.148,-0.9091796875
12.158,-0.7822265625
12.168,-0.6572265625
12.178,-0.54638671875
12.188,-0.452880859375
12.198,-0.37548828125
12.203,-0.2373046875
12.213,-0.1787109375
12.223,-0.07830810546875
12.233,0.0281982421875
12.243,0.09429931640625
12.253,0.12158203125
12.263,0.1387939453125
12.273,0.1285400390625
12.283,0.033599853515625
12.293,-0.158203125
12.303,-0.3955078125
12.313,-0.6328125
12.323,-0.8525390625
12.333,-1.0322265625
12.343,-1.140625
12.353,-1.1572265625
12.36,-1.0888671875
12.37,-0.96728515625
12.38,-0.84619140625
12.39,-0.7646484375
12.4,-0.724609375
12.41,-0.7001953125
12.42,-0.669921875
12.43,-0.630859375
12.44,-0.5791015625
12.45,-0.49267578125
12.46,-0.34765625
12.47,-0.1624755859375
12.48,-0.00684356689453125
12.49,0.07000732421875
12.5,0.1004638671875
12.51,0.1400146484375
12.52,0.1837158203125
12.53,0.1824951171875
12.54,0.10430908203125
12.55,-0.04522705078125
12.559,-0.21240234375
12.569,-0.301025390625
12.579,-0.234130859375
12.589,-0.030792236328125
12.599,0.1749267578125
12.609,0.2265625
12.619,0.08642578125
12.629,-0.1370849609375
12.639,-0.31591796875
12.649,-0.40673828125
12.659,-0.426025390625
12.669,-0.395751953125
12.679,-0.33544921875
12.689,-0.262451171875
12.699,-0.18798828125
12.709,-0.1231689453125
12.719,-0.09136962890625
12.729,-0.11834716796875
12.739,-0.191162109375
12.749,-0.260009765625
12.757,-0.30517578125
12.767,-0.35791015625
12.777,-0.44140625
12.787,-0.5341796875
12.797,-0.5966796875
12.807,-0.6044921875
12.817,-0.56591796875
12.827,-0.515625
12.837,-0.493408203125
12.847,-0.5185546875
12.857,-0.578125
12.867,-0.65673828125
12.877,-0.76025390625
12.887,-0.88671875
12.897,-0.994140625
12.907,-1.029296875
12.917,-0.9580078125
12.927,-0.79296875
12.937,-0.6015625
12.947,-0.444091796875
12.952,-0.135009765625
12.962,-0.1058349609375
12.972,-0.12353515625
12.982,-0.1397705078125
12.992,-0.1396484375
13.002,-0.1396484375
13.012,-0.1563720703125
13.022,-0.214599609375
13.032,-0.316650390625
13.042,-0.41552734375
13.052,-0.462646484375
13.062,-0.444091796875
13.072,-0.36669921875
13.082,-0.2498779296875
13.092,-0.12005615234375
13.102,0.000630855560302734
13.11,0.10137939453125
13.12,0.1536865234375
13.13,0.09771728515625
13.14,-0.090087890625
13.15,-0.34326171875
13.16,-0.5654296875
13.17,-0.69970703125
13.18,-0.72119140625
13.19,-0.6240234375
13.2,-0.4287109375
13.21,-0.1861572265625
13.22,0.033203125
13.23,0.16748046875
13.24,0.1854248046875
13.25,0.079345703125
13.26,-0.110595703125
13.27,-0.2861328125
13.28,-0.370849609375
13.29,-0.360107421875
13.3,-0.285400390625
13.309,-0.190673828125
13.319,-0.125244140625
13.329,-0.1160888671875
13.339,-0.141845703125
13.349,-0.151611328125
13.359,-0.1260986328125
13.369,-0.10406494140625
13.379,-0.1270751953125
13.389,-0.2012939453125
13.399,-0.315673828125
13.409,-0.45263671875
13.419,-0.57373046875
13.429,-0.6259765625
13.439,-0.580078125
13.449,-0.464599609375
13.459,-0.3505859375
13.469,-0.299072265625
13.479,-0.31201171875
13.489,-0.33056640625
13.499,-0.29736328125
13.507,-0.218994140625
13.517,-0.1531982421875
13.527,-0.147705078125
13.537,-0.1937255859375
13.547,-0.239013671875
13.557,-0.259033203125
13.567,-0.30224609375
13.577,-0.431884765625
13.587,-0.6376953125
13.597,-0.82861328125
13.607,-0.89697265625
13.617,-0.78369140625
13.627,-0.5244140625
13.637,-0.2415771484375
13.647,-0.054168701171875
13.657,0.006866455078125
13.667,-0.00769805908203125
13.677,-0.037139892578125
13.687,-0.06402587890625
13.697,-0.10186767578125
13.701,-0.432373046875
13.711,-0.5078125
13.721,-0.56787109375
13.731,-0.62109375
13.741,-0.67529296875
13.751,-0.74853515625
13.761,-0.837890625
13.771,-0.91357421875
13.781,-0.96435546875
13.791,-0.98095703125
13.801,-0.9326171875
13.811,-0.81103515625
13.821,-0.65673828125
13.831,-0.5087890625
13.841,-0.389892578125
13.851,-0.312255859375
13.86,-0.2802734375
13.87,-0.29248046875
13.88,-0.34130859375
13.89,-0.398193359375
13.9,-0.446044921875
13.91,-0.50439453125
13.92,-0.59326171875
13.93,-0.69921875
13.94,-0.81005859375
13.95,-0.9541015625
13.96,-1.142578125
13.97,-1.3095703125
13.98,-1.3564453125
13.99,-1.25
14,-1.0576171875
14.01,-0.8818359375
14.02,-0.7763671875
14.03,-0.72607421875
14.04,-0.68212890625
14.05,-0.5927734375
14.059,-0.439208984375
14.069,-0.261962890625
14.079,-0.1297607421875
14.089,-0.06890869140625
14.099,-0.065185546875
14.109,-0.10693359375
14.119,-0.1895751953125
14.129,-0.2958984375
14.139,-0.38623046875
14.149,-0.420166015625
14.159,-0.396484375
14.169,-0.344970703125
14.179,-0.27490234375
14.189,-0.171142578125
14.199,-0.048309326171875
14.209,0.0310516357421875
14.219,0.0123291015625
14.229,-0.09136962890625
14.239,-0.2152099609375
14.249,-0.316650390625
14.257,-0.3984375
14.267,-0.4697265625
14.277,-0.53125
14.287,-0.58203125
14.297,-0.6103515625
14.307,-0.5888671875
14.317,-0.52001953125
14.327,-0.4462890625
14.337,-0.39453125
14.347,-0.358154296875
14.357,-0.332275390625
14.367,-0.299560546875
14.377,-0.2003173828125
14.387,-0.00101375579833984
14.397,0.232666015625
14.407,0.37890625
14.417,0.377197265625
14.427,0.27294921875
14.437,0.12042236328125
14.447,-0.100341796875
14.452,-1.4560546875
14.462,-1.484375
14.472,-1.44921875
14.482,-1.3408203125
14.492,-1.1767578125
14.502,-1.015625
14.512,-0.91796875
14.522,-0.8984375
14.532,-0.93408203125
14.542,-1.0166015625
14.552,-1.1416015625
14.562,-1.263671875
14.572,-1.3125
14.582,-1.2548828125
14.592,-1.126953125
14.602,-0.99951171875
14.61,-0.92919921875
14.62,-0.93310546875
14.63,-0.99169921875
14.64,-1.068359375
14.65,-1.1357421875
14.66,-1.193359375
14.67,-1.2509765625
14.68,-1.2939453125
14.69,-1.2734375
14.7,-1.1533203125
14.71,-0.970703125
14.72,-0.8056640625
14.73,-0.7021484375
14.74,-0.64599609375
14.75,-0.60009765625
14.76,-0.5458984375
14.77,-0.4912109375
14.78,-0.442138671875
14.79,-0.38916015625
14.8,-0.326904296875
14.809,-0.26513671875
14.819,-0.2100830078125
14.829,-0.1451416015625
14.839,-0.051055908203125
14.849,0.073974609375
14.859,0.217041015625
14.869,0.35009765625
14.879,0.45361328125
14.889,0.5263671875
14.899,0.55908203125
14.909,0.54296875
14.919,0.48876953125
14.929,0.39599609375
14.939,0.24853515625
14.949,0.047393798828125
14.959,-0.18115234375
14.969,-0.410888671875
14.979,-0.60498046875
14.989,-0.71240234375
14.999,-0.7080078125
15.007,-0.60205078125
15.017,-0.431396484375
15.027,-0.248779296875
15.037,-0.10650634765625
15.047,-0.0265655517578125
15.057,0.0125045776367188
15.067,0.0257110595703125
15.077,0.0134506225585938
15.087,-0.00605010986328125
15.097,-0.0290985107421875
15.107,-0.089111328125
15.117,-0.2100830078125
15.127,-0.348876953125
15.137,-0.433837890625
15.147,-0.4599609375
15.157,-0.45849609375
15.167,-0.416259765625
15.177,-0.307861328125
15.187,-0.142578125
15.197,0.037872314453125
15.201,-0.13037109375
15.211,-0.381591796875
15.221,-0.59716796875
15.231,-0.76416015625
15.241,-0.90234375
15.251,-0.9853515625
15.261,-0.9580078125
15.271,-0.79248046875
15.281,-0.521484375
15.291,-0.265869140625
15.301,-0.1517333984375
15.311,-0.2177734375
15.321,-0.422119140625
15.331,-0.6943359375
15.341,-0.9833984375
15.351,-1.259765625
15.36,-1.4912109375
15.37,-1.6513671875
15.38,-1.7255859375
15.39,-1.724609375
15.4,-1.6787109375
15.41,-1.6044921875
15.42,-1.498046875
15.43,-1.353515625
15.44,-1.1552734375
15.45,-0.9072265625
15.46,-0.6298828125
15.47,-0.337890625
15.48,-0.09368896484375
15.49,0.036102294921875
15.5,0.06658935546875
15.51,0.037353515625
15.52,-0.0117721557617188
15.53,-0.015716552734375
15.54,0.05194091796875
15.55,0.1634521484375
15.559,0.261474609375
15.569,0.253662109375
15.579,0.10504150390625
15.589,-0.11358642578125
15.599,-0.337646484375
15.609,-0.53125
15.619,-0.6455078125
15.629,-0.65869140625
15.639,-0.591796875
15.649,-0.5009765625
15.659,-0.454345703125
15.669,-0.46142578125
15.679,-0.48193359375
15.689,-0.50146484375
15.699,-0.50634765625
15.709,-0.45751953125
15.719,-0.328369140625
15.729,-0.12237548828125
15.739,0.09930419921875
15.749,0.20068359375
15.757,0.06903076171875
15.767,-0.289306640625
15.777,-0.76220703125
15.787,-1.2158203125
15.797,-1.5849609375
15.807,-1.853515625
15.817,-2.001953125
15.827,-2.0234375
15.837,-1.93359375
15.847,-1.708984375
15.857,-1.357421875
15.867,-0.96337890625
15.877,-0.61474609375
15.887,-0.377197265625
15.897,-0.300537109375
15.907,-0.36865234375
15.917,-0.51806640625
15.927,-0.71142578125
15.937,-0.904296875
15.947,-1.0205078125
15.952,-1.0576171875
15.962,-1.0205078125
15.972,-0.91650390625
15.982,-0.78466796875
15.992,-0.61767578125
16.002,-0.431396484375
16.012,-0.301513671875
16.022,-0.279052734375
16.032,-0.388916015625
16.042,-0.6416015625
16.052,-0.9697265625
16.062,-1.2509765625
16.072,-1.4091796875
16.082,-1.3955078125
16.092,-1.177734375
16.102,-0.82080078125
16.11,-0.451171875
16.12,-0.13232421875
16.13,0.11029052734375
16.14,0.25341796875
16.15,0.317138671875
16.16,0.3095703125
16.17,0.1929931640625
16.18,-0.00396347045898438
16.19,-0.1800537109375
16.2,-0.296630859375
16.21,-0.356201171875
16.22,-0.325927734375
16.23,-0.231689453125
16.24,-0.1929931640625
16.25,-0.28076171875
16.26,-0.4765625
16.27,-0.7451171875
16.28,-1.0126953125
16.29,-1.158203125
16.3,-1.1494140625
16.309,-1.0849609375
16.319,-1.04296875
16.329,-1.013671875
16.339,-0.9853515625
16.349,-0.9638671875
16.359,-0.9404296875
16.369,-0.9404296875
16.379,-1.037109375
16.389,-1.2333984375
16.399,-1.4296875
16.409,-1.5458984375
16.419,-1.57421875
16.429,-1.51953125
16.439,-1.4013671875
16.449,-1.2734375
16.459,-1.1767578125
16.469,-1.0908203125
16.479,-0.982421875
16.489,-0.859375
16.499,-0.7431640625
16.507,-0.6318359375
16.517,-0.51416015625
16.527,-0.36279296875
16.537,-0.1307373046875
16.547,0.175537109375
16.557,0.4775390625
16.567,0.69970703125
16.577,0.818359375
16.587,0.84814453125
16.597,0.83251953125
16.607,0.8037109375
16.617,0.7294921875
16.627,0.55419921875
16.637,0.295654296875
16.647,0.041534423828125
16.657,-0.1466064453125
16.667,-0.254150390625
16.677,-0.26416015625
16.687,-0.14697265625
16.697,0.0999755859375
16.701,1.7236328125
16.711,1.8330078125
16.721,1.8115234375
16.731,1.6533203125
16.741,1.3662109375
16.751,1
16.761,0.63623046875
16.771,0.34033203125
16.781,0.1318359375
16.791,-0.004241943359375
16.801,-0.09375
16.811,-0.16650390625
16.821,-0.2352294921875
16.831,-0.284423828125
16.841,-0.300537109375
16.851,-0.277587890625
16.86,-0.201904296875
16.87,-0.07867431640625
16.88,0.060394287109375
16.89,0.1822509765625
16.9,0.262939453125
16.91,0.29248046875
16.92,0.267578125
16.93,0.181640625
16.94,0.0594482421875
16.95,-0.03009033203125
16.96,-0.053070068359375
16.97,-0.03778076171875
16.98,-0.0203704833984375
16.99,-0.0236053466796875
17,-0.052001953125
17.01,-0.09222412109375
17.02,-0.146240234375
17.03,-0.2269287109375
17.04,-0.31787109375
17.05,-0.39013671875
17.058,-0.44921875
17.068,-0.52685546875
17.078,-0.6396484375
17.088,-0.771484375
17.098,-0.89892578125
17.108,-1.0185546875
17.118,-1.1318359375
17.128,-1.2060546875
17.138,-1.1826171875
17.148,-1.0263671875
17.158,-0.74658203125
17.168,-0.414306640625
17.178,-0.1431884765625
17.188,-0.0102005004882812
17.198,-0.0030517578125
17.208,-0.08660888671875
17.218,-0.266845703125
17.228,-0.544921875
17.238,-0.85595703125
17.248,-1.0908203125
17.257,-1.16796875
17.267,-1.0986328125
17.277,-0.96484375
17.287,-0.8330078125
17.297,-0.697265625
17.307,-0.52490234375
17.317,-0.312255859375
17.327,-0.094970703125
17.337,0.078369140625
17.347,0.1668701171875
17.357,0.171142578125
17.367,0.139404296875
17.377,0.09954833984375
17.387,0.028167724609375
17.397,-0.09857177734375
17.407,-0.2587890625
17.417,-0.390380859375
17.427,-0.44873046875
17.437,-0.4541015625
17.447,-0.45654296875
17.451,-0.427490234375
17.461,-0.381591796875
17.471,-0.40185546875
17.481,-0.478515625
17.491,-0.56396484375
17.501,-0.6005859375
17.511,-0.56103515625
17.521,-0.489013671875
17.531,-0.46923828125
17.541,-0.5693359375
17.551,-0.7890625
17.561,-1.0380859375
17.571,-1.18359375
17.581,-1.13671875
17.591,-0.91796875
17.601,-0.658203125
17.61,-0.5283203125
17.62,-0.61328125
17.63,-0.83642578125
17.64,-1.0234375
17.65,-1.013671875
17.66,-0.734375
17.67,-0.255859375
17.68,0.212158203125
17.69,0.470458984375
17.7,0.468017578125
17.71,0.287109375
17.72,0.05096435546875
17.73,-0.131591796875
17.74,-0.1785888671875
17.75,-0.07659912109375
17.76,0.08197021484375
17.77,0.154296875
17.78,0.044769287109375
17.79,-0.248046875
17.8,-0.6318359375
17.808,-0.95654296875
17.818,-1.0732421875
17.828,-0.90576171875
17.838,-0.50146484375
17.848,-0.035003662109375
17.858,0.282958984375
17.868,0.3125
17.878,0.03363037109375
17.888,-0.4443359375
17.898,-0.92431640625
17.908,-1.2373046875
17.918,-1.2958984375
17.928,-1.0625
17.938,-0.5771484375
17.948,-0.00325202941894531
17.958,0.4443359375
17.968,0.60595703125
17.978,0.43994140625
17.988,0.0244140625
17.998,-0.497314453125
18.007,-0.99365234375
18.017,-1.3759765625
18.027,-1.587890625
18.037,-1.580078125
18.047,-1.3095703125
18.057,-0.78759765625
18.067,-0.1278076171875
18.077,0.47900390625
18.087,0.86376953125
18.097,0.93310546875
18.107,0.673828125
18.117,0.1483154296875
18.127,-0.52978515625
18.137,-1.2158203125
18.147,-1.7802734375
18.157,-2.169921875
18.167,-2.3828125
18.177,-2.392578125
18.187,-2.15234375
18.197,-1.646484375
18.201,2.01171875
18.211,2.421875
18.221,2.587890625
18.231,2.474609375
18.241,2.064453125
18.251,1.3779296875
18.261,0.48974609375
18.271,-0.482421875
18.281,-1.4208984375
18.291,-2.240234375
18.301,-2.892578125
18.311,-3.359375
18.321,-3.666015625
18.331,-3.8515625
18.341,-3.927734375
18.351,-3.890625
18.36,-3.7421875
18.37,-3.498046875
18.38,-3.1796875
18.39,-2.8046875
18.4,-2.376953125
18.41,-1.8916015625
18.42,-1.357421875
18.43,-0.78369140625
18.44,-0.1859130859375
18.45,0.41845703125
18.46,1.0166015625
18.47,1.587890625
18.48,2.09375
18.49,2.484375
18.5,2.70703125
18.51,2.72265625
18.52,2.5234375
18.53,2.125
18.54,1.5625
18.55,0.880859375
18.558,0.1533203125
18.568,-0.54541015625
18.578,-1.1689453125
18.588,-1.697265625
18.598,-2.115234375
18.608,-2.41015625
18.618,-2.587890625
18.628,-2.6875
18.638,-2.75390625
18.648,-2.80859375
18.658,-2.859375
18.668,-2.90625
18.678,-2.94140625
18.688,-2.939453125
18.698,-2.888671875
18.708,-2.81640625
18.718,-2.76953125
18.728,-2.755859375
18.738,-2.724609375
18.748,-2.61328125
18.757,-2.380859375
18.767,-2.03515625
18.777,-1.6083984375
18.787,-1.14453125
18.797,-0.6953125
18.807,-0.30126953125
18.817,0.031158447265625
18.827,0.327880859375
18.837,0.61328125
18.847,0.88232421875
18.857,1.109375
18.867,1.2890625
18.877,1.44140625
18.887,1.583984375
18.897,1.7314453125
18.907,1.892578125
18.917,2.06640625
18.927,2.25
18.937,2.4453125
18.947,2.64453125
18.952,2.796875
18.962,2.75390625
18.972,2.70703125
18.982,2.64453125
18.992,2.572265625
19.002,2.505859375
19.012,2.4375
19.022,2.3515625
19.032,2.255859375
19.042,2.169921875
19.052,2.12109375
19.062,2.140625
19.072,2.224609375
19.082,2.33984375
19.092,2.4375
19.102,2.470703125
19.11,2.40234375
19.12,2.20703125
19.13,1.8798828125
19.14,1.4248046875
19.15,0.86328125
19.16,0.225830078125
19.17,-0.459228515625
19.18,-1.146484375
19.19,-1.76953125
19.2,-2.267578125
19.21,-2.62109375
19.22,-2.84765625
19.23,-2.97265625
19.24,-3.015625
19.25,-2.994140625
19.26,-2.92578125
19.27,-2.82421875
19.28,-2.7109375
19.29,-2.591796875
19.3,-2.431640625
19.308,-2.16796875
19.318,-1.759765625
19.328,-1.216796875
19.338,-0.5751953125
19.348,0.11505126953125
19.358,0.81201171875
19.368,1.4853515625
19.378,2.103515625
19.388,2.615234375
19.398,2.984375
19.408,3.205078125
19.418,3.30859375
19.428,3.328125
19.438,3.287109375
19.448,3.193359375
19.458,3.025390625
19.468,2.74609375
19.478,2.365234375
19.488,1.943359375
19.498,1.5419921875
19.507,1.205078125
19.517,0.94873046875
19.527,0.75732421875
19.537,0.59912109375
19.547,0.44921875
19.557,0.2705078125
19.567,0.038116455078125
19.577,-0.23876953125
19.587,-0.546875
19.597,-0.87841796875
19.607,-1.2138671875
19.617,-1.5146484375
19.627,-1.744140625
19.637,-1.884765625
19.647,-1.931640625
19.657,-1.8818359375
19.667,-1.751953125
19.677,-1.5771484375
19.687,-1.3876953125
19.697,-1.208984375
19.701,-0.80126953125
19.711,-0.66796875
19.721,-0.443115234375
19.731,-0.1470947265625
19.741,0.20947265625
19.751,0.634765625
19.761,1.1416015625
19.771,1.708984375
19.781,2.271484375
19.791,2.759765625
19.801,3.12890625
19.811,3.37890625
19.821,3.5234375
19.831,3.55859375
19.841,3.447265625
19.851,3.16015625
19.86,2.736328125
19.87,2.244140625
19.88,1.7060546875
19.89,1.1337890625
19.9,0.56005859375
19.91,-0.0180511474609375
19.92,-0.6357421875
19.93,-1.3017578125
19.94,-1.9609375
19.95,-2.525390625
19.96,-2.927734375
19.97,-3.12890625
19.98,-3.09375
19.99,-2.830078125
20,-2.421875
20.01,-1.96875
20.02,-1.54296875
20.03,-1.1630859375
20.04,-0.814453125
20.05,-0.455078125
20.058,-0.050018310546875
20.068,0.38037109375
20.078,0.7646484375
20.088,1.0419921875
20.098,1.1982421875
20.108,1.2373046875
20.118,1.140625
20.128,0.86865234375
20.138,0.416748046875
20.148,-0.1517333984375
20.158,-0.73583984375
20.168,-1.2314453125
20.178,-1.54296875
20.188,-1.6201171875
20.198,-1.4677734375
20.208,-1.111328125
20.218,-0.595703125
20.228,-0.02642822265625
20.238,0.443115234375
20.248,0.69580078125
20.257,0.697265625
20.267,0.481201171875
20.277,0.12066650390625
20.287,-0.29052734375
20.297,-0.64501953125
20.307,-0.828125
20.317,-0.75927734375
20.327,-0.44921875
20.337,-0.00677490234375
20.347,0.401611328125
20.357,0.63037109375
20.367,0.62060546875
20.377,0.413330078125
20.387,0.11273193359375
20.397,-0.179443359375
20.407,-0.408447265625
20.417,-0.57275390625
20.427,-0.7109375
20.437,-0.85546875
20.447,-0.98779296875
20.451,0.44970703125
20.461,1.009765625
20.471,1.4130859375
20.481,1.5478515625
20.491,1.38671875
20.501,0.9892578125
20.511,0.479248046875
20.521,0.00447463989257812
20.531,-0.331787109375
20.541,-0.5048828125
20.551,-0.52978515625
20.561,-0.440185546875
20.571,-0.30419921875
20.581,-0.1968994140625
20.591,-0.155029296875
20.601,-0.152587890625
20.61,-0.129150390625
20.62,-0.050048828125
20.63,0.072509765625
20.64,0.1856689453125
20.65,0.2159423828125
20.66,0.1282958984375
20.67,-0.04974365234375
20.68,-0.260498046875
20.69,-0.423828125
20.7,-0.45166015625
20.71,-0.29345703125
20.72,0.0207672119140625
20.73,0.37646484375
20.74,0.63427734375
20.75,0.7041015625
20.76,0.56494140625
20.77,0.265625
20.78,-0.10113525390625
20.79,-0.437744140625
20.8,-0.68701171875
20.808,-0.85302734375
20.818,-0.95751953125
20.828,-1.00390625
20.838,-0.99267578125
20.848,-0.91943359375
20.858,-0.77294921875
20.868,-0.55517578125
20.878,-0.302001953125
20.888,-0.07720947265625
20.898,0.05419921875
20.908,0.048980712890625
20.918,-0.1058349609375
20.928,-0.376708984375
20.938,-0.68505859375
20.948,-0.94189453125
20.958,-1.080078125
20.968,-1.068359375
20.978,-0.9228515625
20.988,-0.72265625
20.998,-0.5673828125
21.007,-0.525390625
21.017,-0.60205078125
21.027,-0.74658203125
21.037,-0.88623046875
21.047,-0.9697265625
21.057,-0.98583984375
21.067,-0.94921875
21.077,-0.88671875
21.087,-0.8291015625
21.097,-0.79736328125
21.107,-0.79296875
21.117,-0.79931640625
21.127,-0.7861328125
21.137,-0.7177734375
21.147,-0.58056640625
21.157,-0.399169921875
21.167,-0.2218017578125
21.177,-0.0869140625
21.187,-0.014129638671875
21.197,-0.0201416015625
21.202,-0.861328125
21.212,-0.76220703125
21.222,-0.54345703125
21.232,-0.28759765625
21.242,-0.104248046875
21.252,-0.077880859375
21.262,-0.2115478515625
21.272,-0.423828125
21.282,-0.609375
21.292,-0.69873046875
21.302,-0.6787109375
21.312,-0.58544921875
21.322,-0.484375
21.332,-0.425048828125
21.342,-0.409423828125
21.352,-0.403076171875
21.359,-0.37646484375
21.369,-0.324951171875
21.379,-0.266845703125
21.389,-0.2418212890625
21.399,-0.275390625
21.409,-0.346923828125
21.419,-0.416748046875
21.429,-0.44482421875
21.439,-0.405517578125
21.449,-0.339599609375
21.459,-0.33447265625
21.469,-0.427001953125
21.479,-0.578125
21.489,-0.7236328125
21.499,-0.818359375
21.509,-0.853515625
21.519,-0.85107421875
21.529,-0.83203125
21.539,-0.78271484375
21.549,-0.6865234375
21.558,-0.5712890625
21.568,-0.489501953125
21.578,-0.484375
21.588,-0.56201171875
21.598,-0.666015625
21.608,-0.71533203125
21.618,-0.69921875
21.628,-0.68798828125
21.638,-0.73876953125
21.648,-0.83984375
21.658,-0.9443359375
21.668,-1.0078125
21.678,-1.0048828125
21.688,-0.939453125
21.698,-0.82373046875
21.708,-0.6767578125
21.718,-0.513671875
21.728,-0.34912109375
21.738,-0.2081298828125
21.748,-0.11334228515625
21.757,-0.06683349609375
21.767,-0.04083251953125
21.777,0.0135498046875
21.787,0.1116943359375
21.797,0.2218017578125
21.807,0.31787109375
21.817,0.392333984375
21.827,0.43798828125
21.837,0.45263671875
21.847,0.428955078125
21.857,0.365234375
21.867,0.28857421875
21.877,0.23486328125
21.887,0.2105712890625
21.897,0.1806640625
21.907,0.1014404296875
21.917,-0.03515625
21.927,-0.1959228515625
21.937,-0.33447265625
21.947,-0.415771484375
21.952,0.01568603515625
21.962,0.031494140625
21.972,-0.03497314453125
21.982,-0.147705078125
21.992,-0.29052734375
22.002,-0.464111328125
22.012,-0.65234375
22.022,-0.8095703125
22.032,-0.8876953125
22.042,-0.87548828125
22.052,-0.8037109375
22.062,-0.70947265625
22.072,-0.60302734375
22.082,-0.47802734375
22.092,-0.35595703125
22.102,-0.29736328125
22.109,-0.35888671875
22.119,-0.5400390625
22.129,-0.7724609375
22.139,-0.96337890625
22.149,-1.0517578125
22.159,-1.0361328125
22.169,-0.96484375
22.179,-0.89208984375
22.189,-0.83837890625
22.199,-0.7890625
22.209,-0.728515625
22.219,-0.67529296875
22.229,-0.6708984375
22.239,-0.73974609375
22.249,-0.8662109375
22.259,-0.984375
22.269,-1.001953125
22.279,-0.85986328125
22.289,-0.58447265625
22.299,-0.275146484375
22.308,-0.042633056640625
22.318,0.0330810546875
22.328,-0.07568359375
22.338,-0.33935546875
22.348,-0.689453125
22.358,-1.0361328125
22.368,-1.2783203125
22.378,-1.3349609375
22.388,-1.1923828125
22.398,-0.9052734375
22.408,-0.572265625
22.418,-0.297119140625
22.428,-0.1617431640625
22.438,-0.203369140625
22.448,-0.395263671875
22.458,-0.65771484375
22.468,-0.89794921875
22.478,-1.041015625
22.488,-1.0380859375
22.498,-0.87841796875
22.507,-0.5771484375
22.517,-0.1593017578125
22.527,0.34716796875
22.537,0.89306640625
22.547,1.3974609375
22.557,1.759765625
22.567,1.90234375
22.577,1.8017578125
22.587,1.4853515625
22.597,0.9990234375
22.607,0.401123046875
22.617,-0.237060546875
22.627,-0.841796875
22.637,-1.357421875
22.647,-1.75390625
22.657,-2.001953125
22.667,-2.087890625
22.677,-2.005859375
22.687,-1.783203125
22.697,-1.4580078125
22.701,0.00334930419921875
22.711,0.212158203125
22.721,0.4189453125
22.731,0.60595703125
22.741,0.73876953125
22.751,0.7861328125
22.761,0.72607421875
22.771,0.546875
22.781,0.260009765625
22.791,-0.0902099609375
22.801,-0.439208984375
22.811,-0.72509765625
22.821,-0.9111328125
22.831,-1
22.841,-1.0361328125
22.851,-1.0810546875
22.859,-1.181640625
22.869,-1.345703125
22.879,-1.548828125
22.889,-1.7587890625
22.899,-1.9599609375
22.909,-2.150390625
22.919,-2.322265625
22.929,-2.447265625
22.939,-2.505859375
22.949,-2.501953125
22.959,-2.46484375
22.969,-2.451171875
22.979,-2.4921875
22.989,-2.56640625
22.999,-2.611328125
23.009,-2.568359375
23.019,-2.396484375
23.029,-2.0859375
23.039,-1.64453125
23.049,-1.1171875
23.058,-0.56591796875
23.068,-0.0377197265625
23.078,0.45458984375
23.088,0.91552734375
23.098,1.3349609375
23.108,1.68359375
23.118,1.9208984375
23.128,2.00390625
23.138,1.896484375
23.148,1.57421875
23.158,1.0654296875
23.168,0.4375
23.178,-0.228515625
23.188,-0.8701171875
23.198,-1.45703125
23.208,-1.9755859375
23.218,-2.416015625
23.228,-2.775390625
23.238,-3.044921875
23.248,-3.203125
23.257,-3.197265625
23.267,-2.95703125
23.277,-2.431640625
23.287,-1.6513671875
23.297,-0.70166015625
23.307,0.277099609375
23.317,1.140625
23.327,1.76171875
23.337,2.037109375
23.347,1.9013671875
23.357,1.3564453125
23.367,0.51513671875
23.377,-0.42724609375
23.387,-1.2578125
23.397,-1.7841796875
23.407,-1.8642578125
23.417,-1.4638671875
23.427,-0.69677734375
23.437,0.2039794921875
23.447,0.9755859375
23.451,-0.7705078125
23.461,-1.5751953125
23.471,-2.10546875
23.481,-2.263671875
23.491,-2.05859375
23.501,-1.6015625
23.511,-1.0556640625
23.521,-0.58740234375
23.531,-0.310546875
23.541,-0.260986328125
23.551,-0.39697265625
23.561,-0.6240234375
23.571,-0.8349609375
23.581,-0.95361328125
23.591,-0.9697265625
23.601,-0.93603515625
23.609,-0.9189453125
23.619,-0.96044921875
23.629,-1.0546875
23.639,-1.150390625
23.649,-1.1796875
23.659,-1.095703125
23.669,-0.8896484375
23.679,-0.60595703125
23.689,-0.332763671875
23.699,-0.1651611328125
23.709,-0.1602783203125
23.719,-0.3076171875
23.729,-0.53466796875
23.739,-0.7412109375
23.749,-0.85009765625
23.759,-0.8447265625
23.769,-0.767578125
23.779,-0.69189453125
23.789,-0.67724609375
23.799,-0.732421875
23.808,-0.814453125
23.818,-0.86083984375
23.828,-0.83251953125
23.838,-0.73681640625
23.848,-0.62841796875
23.858,-0.57421875
23.868,-0.61376953125
23.878,-0.732421875
23.888,-0.87060546875
23.898,-0.95361328125
23.908,-0.94189453125
23.918,-0.84716796875
23.928,-0.72216796875
23.938,-0.62939453125
23.948,-0.6025390625
23.958,-0.623046875
23.968,-0.6357421875
23.978,-0.6025390625
23.988,-0.546875
23.998,-0.533203125
24.007,-0.61083984375
24.017,-0.77685546875
24.027,-0.97216796875
24.037,-1.107421875
24.047,-1.1103515625
24.057,-0.978515625
24.067,-0.779296875
24.077,-0.6005859375
24.087,-0.498779296875
24.097,-0.467041015625
24.107,-0.455322265625
24.117,-0.42578125
24.127,-0.390625
24.137,-0.392333984375
24.147,-0.455810546875
24.157,-0.560546875
24.167,-0.6552734375
24.177,-0.70068359375
24.187,-0.70654296875
24.197,-0.7119140625
24.201,-0.51513671875
24.211,-0.43017578125
24.221,-0.38818359375
24.231,-0.35986328125
24.241,-0.318603515625
24.251,-0.27685546875
24.261,-0.269287109375
24.271,-0.310302734375
24.281,-0.3740234375
24.291,-0.4189453125
24.301,-0.43115234375
24.311,-0.43798828125
24.321,-0.467529296875
24.331,-0.50927734375
24.341,-0.529296875
24.351,-0.51904296875
24.359,-0.5087890625
24.369,-0.53125
24.379,-0.578125
24.389,-0.609375
24.399,-0.5947265625
24.409,-0.55078125
24.419,-0.513671875
24.429,-0.494873046875
24.439,-0.49072265625
24.449,-0.5185546875
24.459,-0.611328125
24.469,-0.7734375
24.479,-0.9541015625
24.489,-1.0849609375
24.499,-1.1298828125
24.509,-1.0927734375
24.519,-0.99072265625
24.529,-0.8349609375
24.539,-0.6484375
24.549,-0.477294921875
24.558,-0.3740234375
24.568,-0.35400390625
24.578,-0.384033203125
24.588,-0.419921875
24.598,-0.447021484375
24.608,-0.460693359375
24.618,-0.437255859375
24.628,-0.361328125
24.638,-0.2568359375
24.648,-0.170654296875
24.658,-0.12249755859375
24.668,-0.0914306640625
24.678,-0.0589599609375
24.688,-0.033966064453125
24.698,-0.0276031494140625
24.708,-0.0318603515625
24.718,-0.035614013671875
24.728,-0.050079345703125
24.738,-0.10546875
24.748,-0.2127685546875
24.757,-0.33642578125
24.767,-0.436767578125
24.777,-0.5283203125
24.787,-0.64453125
24.797,-0.7529296875
24.807,-0.78173828125
24.817,-0.7314453125
24.827,-0.6796875
24.837,-0.65380859375
24.847,-0.59521484375
24.857,-0.4716796875
24.867,-0.32568359375
24.877,-0.19677734375
24.887,-0.07879638671875
24.897,0.027130126953125
24.907,0.08026123046875
24.917,0.059417724609375
24.927,0.0116500854492188
24.937,-0.00872039794921875
24.947,-0.0118560791015625
24.952,-0.240966796875
24.962,-0.34716796875
24.972,-0.455078125
24.982,-0.5390625
24.992,-0.58544921875
25.002,-0.5888671875
25.012,-0.556640625
25.022,-0.5009765625
25.032,-0.436767578125
25.042,-0.390625
25.052,-0.39697265625
25.062,-0.456787109375
25.072,-0.5458984375
25.082,-0.6669921875
25.092,-0.8291015625
25.102,-1.0048828125
25.109,-1.1494140625
25.119,-1.2392578125
25.129,-1.263671875
25.139,-1.19921875
25.149,-1.0283203125
25.159,-0.794921875
25.169,-0.56005859375
25.179,-0.33984375
25.189,-0.1380615234375
25.199,0.0206451416015625
25.209,0.1025390625
25.219,0.10247802734375
25.229,0.06292724609375
25.239,0.0164337158203125
25.249,-0.056793212890625
25.259,-0.156982421875
25.269,-0.2288818359375
25.279,-0.241943359375
25.289,-0.2254638671875
25.299,-0.218017578125
25.308,-0.2288818359375
25.318,-0.2464599609375
25.328,-0.270263671875
25.338,-0.319580078125
25.348,-0.395263671875
25.358,-0.45751953125
25.368,-0.4755859375
25.378,-0.4599609375
25.388,-0.405029296875
25.398,-0.276123046875
25.408,-0.089111328125
25.418,0.07537841796875
25.428,0.1658935546875
25.438,0.2012939453125
25.448,0.2027587890625
25.458,0.154296875
25.468,0.040557861328125
25.478,-0.11065673828125
25.488,-0.23486328125
25.498,-0.30517578125
25.507,-0.35791015625
25.517,-0.419921875
25.527,-0.481201171875
25.537,-0.53125
25.547,-0.58251953125
25.557,-0.6669921875
25.567,-0.7939453125
25.577,-0.91259765625
25.587,-0.9921875
25.597,-1.0712890625
25.607,-1.1513671875
25.617,-1.13671875
25.627,-0.9609375
25.637,-0.6826171875
25.647,-0.404541015625
25.657,-0.1551513671875
25.667,0.077392578125
25.677,0.263671875
25.687,0.360107421875
25.697,0.37060546875
25.7,0.1563720703125
25.71,0.1817626953125
25.72,0.2548828125
25.73,0.36474609375
25.74,0.45849609375
25.75,0.474365234375
25.76,0.395263671875
25.77,0.268310546875
25.78,0.1514892578125
25.79,0.04315185546875
25.8,-0.1097412109375
25.81,-0.3427734375
25.82,-0.62548828125
25.83,-0.86572265625
25.84,-0.951171875
25.85,-0.81201171875
25.859,-0.462890625
25.869,-0.00868988037109375
25.879,0.393798828125
25.889,0.62060546875
25.899,0.6494140625
25.909,0.5390625
25.919,0.3759765625
25.929,0.216552734375
25.939,0.04705810546875
25.949,-0.1805419921875
25.959,-0.464111328125
25.969,-0.748046875
25.979,-0.96435546875
25.989,-1.0400390625
25.999,-0.921875
26.009,-0.62353515625
26.019,-0.250244140625
26.029,0.034515380859375
26.039,0.09619140625
26.049,-0.07781982421875
26.058,-0.36767578125
26.068,-0.59912109375
26.078,-0.63671875
26.088,-0.43896484375
26.098,-0.07757568359375
26.108,0.29345703125
26.118,0.51708984375
26.128,0.50634765625
26.138,0.27783203125
26.148,-0.045013427734375
26.158,-0.290771484375
26.168,-0.335693359375
26.178,-0.16650390625
26.188,0.1322021484375
26.198,0.425048828125
26.208,0.57275390625
26.218,0.48779296875
26.228,0.1624755859375
26.238,-0.337158203125
26.248,-0.88525390625
26.253,-0.69189453125
26.263,0.043243408203125
26.273,0.767578125
26.283,1.349609375
26.293,1.6767578125
26.303,1.68359375
26.313,1.373046875
26.323,0.8212890625
26.333,0.154052734375
26.343,-0.50341796875
26.353,-1.072265625
26.363,-1.5322265625
26.373,-1.8974609375
26.383,-2.189453125
26.393,-2.41796875
26.403,-2.599609375
26.41,-2.740234375
26.42,-2.8515625
26.43,-2.9296875
26.44,-2.94921875
26.45,-2.8671875
26.46,-2.65625
26.47,-2.31640625
26.48,-1.904296875
26.49,-1.5078125
26.5,-1.2060546875
26.51,-1.05078125
26.52,-1.0595703125
26.53,-1.2177734375
26.54,-1.5078125
26.55,-1.87109375
26.56,-2.189453125
26.57,-2.3359375
26.58,-2.236328125
26.59,-1.88671875
26.6,-1.353515625
26.609,-0.74462890625
26.619,-0.1727294921875
26.629,0.291015625
26.639,0.6025390625
26.649,0.7236328125
26.659,0.64990234375
26.669,0.41162109375
26.679,0.09259033203125
26.689,-0.159423828125
26.699,-0.183837890625
26.709,0.111572265625
26.719,0.6904296875
26.729,1.408203125
26.739,2.109375
26.749,2.68359375
26.759,3.052734375
26.769,3.201171875
26.779,3.146484375
26.789,2.90625
26.799,2.486328125
26.808,1.908203125
26.818,1.236328125
26.828,0.57080078125
26.838,0.0220947265625
26.848,-0.3251953125
26.858,-0.44873046875
26.868,-0.392333984375
26.878,-0.2152099609375
26.888,0.0335693359375
26.898,0.290283203125
26.908,0.485595703125
26.918,0.57421875
26.928,0.5400390625
26.938,0.385009765625
26.948,0.1302490234375
26.958,-0.19775390625
26.968,-0.57275390625
26.978,-0.9423828125
26.988,-1.2080078125
26.998,-1.2548828125
27.002,0.37109375
27.012,0.286376953125
27.022,-0.00726318359375
27.032,-0.39697265625
27.042,-0.72705078125
27.052,-0.876953125
27.062,-0.8173828125
27.072,-0.5966796875
27.082,-0.310546875
27.092,-0.08721923828125
27.102,-0.034942626953125
27.112,-0.16455078125
27.122,-0.385009765625
27.132,-0.578125
27.142,-0.65625
27.152,-0.5947265625
27.16,-0.447998046875
27.17,-0.303955078125
27.18,-0.2098388671875
27.19,-0.150634765625
27.2,-0.09185791015625
27.21,-0.0260772705078125
27.22,0.0103073120117188
27.23,-0.0247802734375
27.24,-0.130126953125
27.25,-0.271728515625
27.26,-0.4150390625
27.27,-0.5224609375
27.28,-0.5576171875
27.29,-0.517578125
27.3,-0.444580078125
27.31,-0.38671875
27.32,-0.367919921875
27.33,-0.387451171875
27.34,-0.429443359375
27.35,-0.467041015625
27.359,-0.4697265625
27.369,-0.41943359375
27.379,-0.327880859375
27.389,-0.22216796875
27.399,-0.1187744140625
27.409,-0.02874755859375
27.419,0.0294342041015625
27.429,0.04315185546875
27.439,0.0125961303710938
27.449,-0.050750732421875
27.459,-0.1253662109375
27.469,-0.19384765625
27.479,-0.2410888671875
27.489,-0.23388671875
27.499,-0.1412353515625
27.509,0.0147476196289062
27.519,0.1734619140625
27.529,0.299560546875
27.539,0.392822265625
27.549,0.450927734375
27.558,0.458251953125
27.568,0.4140625
27.578,0.338134765625
27.588,0.2330322265625
27.598,0.08624267578125
27.608,-0.09161376953125
27.618,-0.267578125
27.628,-0.423583984375
27.638,-0.55517578125
27.648,-0.64306640625
27.658,-0.6611328125
27.668,-0.61474609375
27.678,-0.53076171875
27.688,-0.42431640625
27.698,-0.2978515625
27.708,-0.1614990234375
27.718,-0.0243377685546875
27.728,0.10992431640625
27.738,0.2158203125
27.748,0.25537109375
27.753,-0.0352783203125
27.763,-0.07391357421875
27.773,-0.10845947265625
27.783,-0.1375732421875
27.793,-0.142578125
27.803,-0.11578369140625
27.813,-0.08404541015625
27.823,-0.07757568359375
27.833,-0.1031494140625
27.843,-0.15185546875
27.853,-0.2054443359375
27.863,-0.2445068359375
27.873,-0.25927734375
27.883,-0.248046875
27.893,-0.2098388671875
27.903,-0.1500244140625
27.91,-0.0867919921875
27.92,-0.036529541015625
27.93,0.00192832946777344
27.94,0.03546142578125
27.95,0.0650634765625
27.96,0.09130859375
27.97,0.11383056640625
27.98,0.132080078125
27.99,0.1522216796875
28,0.1766357421875
28.01,0.191650390625
28.02,0.177978515625
28.03,0.1279296875
28.04,0.049407958984375
28.05,-0.048370361328125
28.06,-0.1634521484375
28.07,-0.287841796875
28.08,-0.4013671875
28.09,-0.480712890625
28.1,-0.50634765625
28.109,-0.47021484375
28.119,-0.38232421875
28.129,-0.25830078125
28.139,-0.11138916015625
28.149,0.03546142578125
28.159,0.15771484375
28.169,0.241455078125
28.179,0.27587890625
28.189,0.25048828125
28.199,0.1669921875
28.209,0.04705810546875
28.219,-0.07830810546875
28.229,-0.1815185546875
28.239,-0.2454833984375
28.249,-0.2626953125
28.259,-0.236572265625
28.269,-0.180419921875
28.279,-0.11273193359375
28.289,-0.05694580078125
28.299,-0.03271484375
28.308,-0.04620361328125
28.318,-0.0947265625
28.328,-0.1710205078125
28.338,-0.262451171875
28.348,-0.353271484375
28.358,-0.42431640625
28.368,-0.45361328125
28.378,-0.42724609375
28.388,-0.348388671875
28.398,-0.235107421875
28.408,-0.10772705078125
28.418,0.0135269165039062
28.428,0.108642578125
28.438,0.160400390625
28.448,0.1590576171875
28.458,0.1055908203125
28.468,0.00945281982421875
28.478,-0.11932373046875
28.488,-0.26123046875
28.498,-0.384765625
28.502,-0.2021484375
28.512,-0.0745849609375
28.522,0.019012451171875
28.532,0.05828857421875
28.542,0.052276611328125
28.552,0.0225372314453125
28.562,-0.016357421875
28.572,-0.057769775390625
28.582,-0.09954833984375
28.592,-0.1431884765625
28.602,-0.1885986328125
28.612,-0.2281494140625
28.622,-0.250732421875
28.632,-0.245849609375
28.642,-0.2064208984375
28.652,-0.1436767578125
28.66,-0.084716796875
28.67,-0.052734375
28.68,-0.0577392578125
28.69,-0.096435546875
28.7,-0.155029296875
28.71,-0.2178955078125
28.72,-0.2744140625
28.73,-0.314208984375
28.74,-0.328369140625
28.75,-0.319091796875
28.76,-0.295166015625
28.77,-0.2568359375
28.78,-0.2005615234375
28.79,-0.1337890625
28.8,-0.0709228515625
28.81,-0.02532958984375
28.82,-0.00962066650390625
28.83,-0.02374267578125
28.84,-0.0537109375
28.85,-0.09088134765625
28.859,-0.133056640625
28.869,-0.1705322265625
28.879,-0.194091796875
28.889,-0.2059326171875
28.899,-0.20703125
28.909,-0.1904296875
28.919,-0.158203125
28.929,-0.1275634765625
28.939,-0.1114501953125
28.949,-0.10565185546875
28.959,-0.09771728515625
28.969,-0.0780029296875
28.979,-0.043914794921875
28.989,-0.000471591949462891
28.999,0.039947509765625
29.009,0.061279296875
29.019,0.06304931640625
29.029,0.0667724609375
29.039,0.085693359375
29.049,0.1064453125
29.058,0.10845947265625
29.068,0.08349609375
29.078,0.033172607421875
29.088,-0.039520263671875
29.098,-0.1307373046875
29.108,-0.2337646484375
29.118,-0.344482421875
29.128,-0.454833984375
29.138,-0.53369140625
29.148,-0.5380859375
29.158,-0.454833984375
29.168,-0.31787109375
29.178,-0.180908203125
29.188,-0.078369140625
29.198,-0.01995849609375
29.208,-0.00084686279296875
29.218,-0.011932373046875
29.228,-0.05340576171875
29.238,-0.126220703125
29.248,-0.213623046875
29.253,-0.1796875
29.263,-0.0850830078125
29.273,-0.00147438049316406
29.283,0.05816650390625
29.293,0.0816650390625
29.303,0.06298828125
29.313,0.00775527954101562
29.323,-0.06646728515625
29.333,-0.1375732421875
29.343,-0.1875
29.353,-0.2086181640625
29.363,-0.202880859375
29.373,-0.173828125
29.383,-0.1229248046875
29.393,-0.05743408203125
29.403,0.00589752197265625
29.41,0.047454833984375
29.42,0.050567626953125
29.43,0.00905609130859375
29.44,-0.06646728515625
29.45,-0.156005859375
29.46,-0.239501953125
29.47,-0.29638671875
29.48,-0.3134765625
29.49,-0.298583984375
29.5,-0.26953125
29.51,-0.2362060546875
29.52,-0.2069091796875
29.53,-0.196533203125
29.54,-0.2138671875
29.55,-0.26220703125
29.56,-0.341552734375
29.57,-0.43505859375
29.58,-0.517578125
29.59,-0.5732421875
29.6,-0.59033203125
29.609,-0.5634765625
29.619,-0.5078125
29.629,-0.44384765625
29.639,-0.3837890625
29.649,-0.338623046875
29.659,-0.328125
29.669,-0.37158203125
29.679,-0.472900390625
29.689,-0.61572265625
29.699,-0.77001953125
29.709,-0.89208984375
29.719,-0.93896484375
29.729,-0.8974609375
29.739,-0.78466796875
29.749,-0.6328125
29.759,-0.48583984375
29.769,-0.382568359375
29.779,-0.339599609375
29.789,-0.35546875
29.799,-0.42041015625
29.808,-0.5078125
29.818,-0.58544921875
29.828,-0.64208984375
29.838,-0.6875
29.848,-0.72998046875
29.858,-0.76806640625
29.868,-0.80078125
29.878,-0.8173828125
29.888,-0.79443359375
29.898,-0.72802734375
29.908,-0.64501953125
29.918,-0.578125
29.928,-0.54931640625
29.938,-0.5751953125
29.948,-0.6591796875
29.958,-0.78125
29.968,-0.90283203125
29.978,-0.98193359375
29.988,-0.98193359375
29.998,-0.8935546875
30.001,-0.3564453125
30.011,-0.405517578125
30.021,-0.48583984375
30.031,-0.5654296875
30.041,-0.623046875
30.051,-0.6494140625
30.061,-0.64208984375
30.071,-0.60546875
30.081,-0.54833984375
30.091,-0.488525390625
30.101,-0.447998046875
30.111,-0.4443359375
30.121,-0.480224609375
30.131,-0.54638671875
30.141,-0.630859375
30.151,-0.7216796875
30.16,-0.80322265625
30.17,-0.85888671875
30.18,-0.87646484375
30.19,-0.85888671875
30.2,-0.81787109375
30.21,-0.77099609375
30.22,-0.73291015625
30.23,-0.70947265625
30.24,-0.6962890625
30.25,-0.68798828125
30.26,-0.67822265625
30.27,-0.662109375
30.28,-0.6357421875
30.29,-0.60009765625
30.3,-0.564453125
30.31,-0.54052734375
30.32,-0.53369140625
30.33,-0.54541015625
30.34,-0.572265625
30.35,-0.61181640625
30.359,-0.66357421875
30.369,-0.72705078125
30.379,-0.79931640625
30.389,-0.87060546875
30.399,-0.92333984375
30.409,-0.93603515625
30.419,-0.8916015625
30.429,-0.794921875
30.439,-0.671875
30.449,-0.5595703125
30.459,-0.493408203125
30.469,-0.490966796875
30.479,-0.544921875
30.489,-0.630859375
30.499,-0.71484375
30.509,-0.765625
30.519,-0.76513671875
30.529,-0.7216796875
30.539,-0.65576171875
30.549,-0.59228515625
30.557,-0.5546875
30.567,-0.5625
30.577,-0.62255859375
30.587,-0.72314453125
30.597,-0.83740234375
30.607,-0.92822265625
30.617,-0.9677734375
30.627,-0.94677734375
30.637,-0.88134765625
30.647,-0.79736328125
30.657,-0.71484375
30.667,-0.64453125
30.677,-0.58984375
30.687,-0.55859375
30.697,-0.552734375
30.707,-0.5693359375
30.717,-0.60205078125
30.727,-0.64453125
30.737,-0.689453125
30.747,-0.73046875
30.752,-0.80419921875
30.762,-0.76123046875
30.772,-0.7060546875
30.782,-0.638671875
30.792,-0.56982421875
30.802,-0.5185546875
30.812,-0.491943359375
30.822,-0.48486328125
30.832,-0.494140625
30.842,-0.51806640625
30.852,-0.54833984375
30.862,-0.57666015625
30.872,-0.60693359375
30.882,-0.64306640625
30.892,-0.67626953125
30.902,-0.6943359375
30.91,-0.69482421875
30.92,-0.6796875
30.93,-0.65283203125
30.94,-0.62255859375
30.95,-0.5986328125
30.96,-0.58642578125
30.97,-0.58056640625
30.98,-0.572265625
30.99,-0.55224609375
31,-0.517578125
31.01,-0.47314453125
31.02,-0.430419921875
31.03,-0.3994140625
31.04,-0.380615234375
31.05,-0.3701171875
31.06,-0.369140625
31.07,-0.382080078125
31.08,-0.407470703125
31.09,-0.44091796875
31.1,-0.481201171875
31.109,-0.52734375
31.119,-0.57763671875
31.129,-0.6279296875
31.139,-0.6748046875
31.149,-0.7109375
31.159,-0.72705078125
31.169,-0.71875
31.179,-0.689453125
31.189,-0.650390625
31.199,-0.61376953125
31.209,-0.58642578125
31.219,-0.56884765625
31.229,-0.560546875
31.239,-0.56201171875
31.249,-0.57177734375
31.259,-0.5869140625
31.269,-0.6015625
31.279,-0.6103515625
31.289,-0.6103515625
31.299,-0.60107421875
31.307,-0.58251953125
31.317,-0.556640625
31.327,-0.53076171875
31.337,-0.51171875
31.347,-0.50048828125
31.357,-0.497802734375
31.367,-0.50244140625
31.377,-0.5146484375
31.387,-0.53369140625
31.397,-0.55322265625
31.407,-0.56689453125
31.417,-0.57421875
31.427,-0.58056640625
31.437,-0.5908203125
31.447,-0.6025390625
31.457,-0.61328125
31.467,-0.623046875
31.477,-0.63525390625
31.487,-0.64990234375
31.497,-0.6630859375
31.501,-0.489501953125
31.511,-0.45166015625
31.521,-0.43798828125
31.531,-0.4521484375
31.541,-0.494384765625
31.551,-0.55126953125
31.561,-0.603515625
31.571,-0.63818359375
31.581,-0.6513671875
31.591,-0.64306640625
31.601,-0.61083984375
31.611,-0.55859375
31.621,-0.50537109375
31.631,-0.468994140625
31.641,-0.456298828125
31.651,-0.466552734375
31.66,-0.497802734375
31.67,-0.54248046875
31.68,-0.587890625
31.69,-0.61962890625
31.7,-0.63134765625
31.71,-0.6220703125
31.72,-0.59521484375
31.73,-0.55859375
31.74,-0.529296875
31.75,-0.5224609375
31.76,-0.54150390625
31.77,-0.58203125
31.78,-0.63916015625
31.79,-0.70703125
31.8,-0.7705078125
31.81,-0.806640625
31.82,-0.79736328125
31.83,-0.7421875
31.84,-0.6533203125
31.85,-0.54541015625
31.859,-0.436279296875
31.869,-0.35107421875
31.879,-0.309814453125
31.889,-0.31689453125
31.899,-0.360595703125
31.909,-0.427490234375
31.919,-0.5068359375
31.929,-0.58447265625
31.939,-0.6416015625
31.949,-0.66064453125
31.959,-0.6396484375
31.969,-0.58740234375
31.979,-0.517578125
31.989,-0.451904296875
31.999,-0.41650390625
32.009,-0.425537109375
32.019,-0.470703125
32.029,-0.533203125
32.039,-0.5947265625
32.049,-0.64453125
32.057,-0.67626953125
32.067,-0.693359375
32.077,-0.70458984375
32.087,-0.7138671875
32.097,-0.7177734375
32.107,-0.7109375
32.117,-0.6904296875
32.127,-0.65625
32.137,-0.6103515625
32.147,-0.560546875
32.157,-0.5185546875
32.167,-0.4912109375
32.177,-0.479736328125
32.187,-0.482177734375
32.197,-0.5
32.207,-0.53759765625
32.217,-0.59375
32.227,-0.6591796875
32.237,-0.71728515625
32.247,-0.75244140625
32.251,-0.55810546875
32.261,-0.5546875
32.271,-0.59130859375
32.281,-0.6591796875
32.291,-0.73974609375
32.301,-0.80419921875
32.311,-0.82763671875
32.321,-0.802734375
32.331,-0.7373046875
32.341,-0.64697265625
32.351,-0.5537109375
32.361,-0.474609375
32.371,-0.421630859375
32.381,-0.40625
32.391,-0.431640625
32.401,-0.489013671875
32.41,-0.564453125
32.42,-0.64306640625
32.43,-0.70556640625
32.44,-0.73583984375
32.45,-0.72802734375
32.46,-0.68896484375
32.47,-0.63427734375
32.48,-0.58154296875
32.49,-0.54248046875
32.5,-0.5205078125
32.51,-0.51611328125
32.52,-0.52392578125
32.53,-0.5361328125
32.54,-0.55078125
32.55,-0.57177734375
32.56,-0.5986328125
32.57,-0.625
32.58,-0.64697265625
32.59,-0.65673828125
32.6,-0.6484375
32.609,-0.619140625
32.619,-0.57373046875
32.629,-0.5244140625
32.639,-0.49462890625
32.649,-0.5048828125
32.659,-0.5595703125
32.669,-0.64306640625
32.679,-0.73291015625
32.689,-0.8056640625
32.699,-0.84033203125
32.709,-0.83056640625
32.719,-0.78759765625
32.729,-0.73388671875
32.739,-0.68408203125
32.749,-0.64697265625
32.759,-0.62744140625
32.769,-0.623046875
32.779,-0.62890625
32.789,-0.64990234375
32.799,-0.68603515625
32.807,-0.72119140625
32.817,-0.73876953125
32.827,-0.74072265625
32.837,-0.73193359375
32.847,-0.7080078125
32.857,-0.66650390625
32.867,-0.615234375
32.877,-0.5654296875
32.887,-0.52197265625
32.897,-0.49609375
32.907,-0.505859375
32.917,-0.55908203125
32.927,-0.642578125
32.937,-0.73388671875
32.947,-0.81591796875
32.957,-0.87158203125
32.967,-0.8857421875
32.977,-0.85693359375
32.987,-0.8017578125
32.997,-0.73681640625
33.001,-0.5029296875
33.011,-0.494384765625
33.021,-0.5126953125
33.031,-0.56103515625
33.041,-0.6162109375
33.051,-0.6474609375
33.061,-0.64892578125
33.071,-0.6298828125
33.081,-0.591796875
33.091,-0.52783203125
33.101,-0.448974609375
33.111,-0.386962890625
33.121,-0.3623046875
33.131,-0.36962890625
33.141,-0.39794921875
33.151,-0.45556640625
33.16,-0.55322265625
33.17,-0.6689453125
33.18,-0.75927734375
33.19,-0.80419921875
33.2,-0.8212890625
33.21,-0.83056640625
33.22,-0.826171875
33.23,-0.79638671875
33.24,-0.7509765625
33.25,-0.71484375
33.26,-0.69775390625
33.27,-0.693359375
33.28,-0.70068359375
33.29,-0.72802734375
33.3,-0.77294921875
33.31,-0.806640625
33.32,-0.79443359375
33.33,-0.72802734375
33.34,-0.630859375
33.35,-0.529296875
33.359,-0.436767578125
33.369,-0.361572265625
33.379,-0.3203125
33.389,-0.3330078125
33.399,-0.39794921875
33.409,-0.4853515625
33.419,-0.56005859375
33.429,-0.607421875
33.439,-0.630859375
33.449,-0.62939453125
33.459,-0.60009765625
33.469,-0.5537109375
33.479,-0.51806640625
33.489,-0.52001953125
33.499,-0.55712890625
33.509,-0.6025390625
33.519,-0.62939453125
33.529,-0.63525390625
33.539,-0.63525390625
33.549,-0.63916015625
33.557,-0.6376953125
33.567,-0.62353515625
33.577,-0.60888671875
33.587,-0.6220703125
33.597,-0.6787109375
33.607,-0.7578125
33.617,-0.81591796875
33.627,-0.8251953125
33.637,-0.79833984375
33.647,-0.771484375
33.657,-0.763671875
33.667,-0.759765625
33.677,-0.7353515625
33.687,-0.69091796875
33.697,-0.65771484375
33.707,-0.666015625
33.717,-0.71044921875
33.727,-0.7529296875
33.737,-0.7568359375
33.747,-0.71728515625
33.752,-0.5703125
33.762,-0.53955078125
33.772,-0.484375
33.782,-0.43017578125
33.792,-0.40478515625
33.802,-0.4169921875
33.812,-0.4501953125
33.822,-0.47802734375
33.832,-0.485107421875
33.842,-0.478759765625
33.852,-0.483642578125
33.862,-0.5234375
33.872,-0.60400390625
33.882,-0.70263671875
33.892,-0.7783203125
33.902,-0.79736328125
33.91,-0.751953125
33.92,-0.662109375
33.93,-0.564453125
33.94,-0.499755859375
33.95,-0.49951171875
33.96,-0.56787109375
33.97,-0.671875
33.98,-0.755859375
33.99,-0.77490234375
34,-0.7236328125
34.01,-0.634765625
34.02,-0.556640625
34.03,-0.53076171875
34.04,-0.56787109375
34.05,-0.64306640625
34.06,-0.70751953125
34.07,-0.720703125
34.08,-0.66357421875
34.09,-0.55224609375
34.1,-0.43359375
34.109,-0.370361328125
34.119,-0.4072265625
34.129,-0.54345703125
34.139,-0.73095703125
34.149,-0.88916015625
34.159,-0.943359375
34.169,-0.8603515625
34.179,-0.6650390625
34.189,-0.421630859375
34.199,-0.208251953125
34.209,-0.09686279296875
34.219,-0.12890625
34.229,-0.2958984375
34.239,-0.5439453125
34.249,-0.794921875
34.259,-0.9658203125
34.269,-0.99169921875
34.279,-0.85693359375
34.289,-0.603515625
34.299,-0.315673828125
34.307,-0.0858154296875
34.317,0.013397216796875
34.327,-0.0494384765625
34.337,-0.259033203125
34.347,-0.5576171875
34.357,-0.859375
34.367,-1.0751953125
34.377,-1.1435546875
34.387,-1.0458984375
34.397,-0.814453125
34.407,-0.51171875
34.417,-0.2138671875
34.427,0.00920867919921875
34.437,0.10028076171875
34.447,0.027862548828125
34.457,-0.2017822265625
34.467,-0.5478515625
34.477,-0.947265625
34.487,-1.3212890625
34.497,-1.5927734375
34.501,-0.481689453125
34.511,-0.031463623046875
34.521,0.3115234375
34.531,0.489013671875
34.541,0.473876953125
34.551,0.268310546875
34.561,-0.09381103515625
34.571,-0.55419921875
34.581,-1.0478515625
34.591,-1.515625
34.601,-1.90625
34.611,-2.185546875
34.621,-2.33984375
34.631,-2.373046875
34.641,-2.29296875
34.651,-2.103515625
34.66,-1.8037109375
34.67,-1.404296875
34.68,-0.92724609375
34.69,-0.403564453125
34.7,0.1319580078125
34.71,0.6513671875
34.72,1.13671875
34.73,1.57421875
34.74,1.951171875
34.75,2.25
34.76,2.44921875
34.77,2.51171875
34.78,2.408203125
34.79,2.115234375
34.8,1.63671875
34.81,1.005859375
34.82,0.279052734375
34.83,-0.479248046875
34.84,-1.212890625
34.85,-1.8798828125
34.858,-2.451171875
34.868,-2.91015625
34.878,-3.25
34.888,-3.458984375
34.898,-3.544921875
34.908,-3.525390625
34.918,-3.443359375
34.928,-3.33203125
34.938,-3.220703125
34.948,-3.123046875
34.958,-3.044921875
34.968,-2.99609375
34.978,-2.978515625
34.988,-2.984375
34.998,-3.00390625
35.008,-3.03125
35.018,-3.060546875
35.028,-3.080078125
35.038,-3.078125
35.048,-3.044921875
35.057,-2.98046875
35.067,-2.892578125
35.077,-2.80078125
35.087,-2.736328125
35.097,-2.716796875
35.107,-2.74609375
35.117,-2.8203125
35.127,-2.9296875
35.137,-3.060546875
35.147,-3.1953125
35.157,-3.328125
35.167,-3.4609375
35.177,-3.599609375
35.187,-3.7421875
35.197,-3.873046875
35.207,-3.966796875
35.217,-4.0078125
35.227,-4
35.237,-3.9453125
35.247,-3.849609375
35.252,-2.12109375
35.262,-1.447265625
35.272,-0.701171875
35.282,0.06951904296875
35.292,0.80859375
35.302,1.4619140625
35.312,1.990234375
35.322,2.376953125
35.332,2.609375
35.342,2.677734375
35.352,2.5859375
35.362,2.35546875
35.372,2.00390625
35.382,1.556640625
35.392,1.0234375
35.402,0.4267578125
35.41,-0.2049560546875
35.42,-0.83154296875
35.43,-1.4130859375
35.44,-1.91796875
35.45,-2.322265625
35.46,-2.60546875
35.47,-2.751953125
35.48,-2.748046875
35.49,-2.564453125
35.5,-2.1796875
35.51,-1.607421875
35.52,-0.90673828125
35.53,-0.166259765625
35.54,0.513671875
35.55,1.03515625
35.56,1.3212890625
35.57,1.3251953125
35.58,1.0478515625
35.59,0.544921875
35.6,-0.08465576171875
35.608,-0.7333984375
35.618,-1.314453125
35.628,-1.7763671875
35.638,-2.08203125
35.648,-2.197265625
35.658,-2.087890625
35.668,-1.7470703125
35.678,-1.205078125
35.688,-0.54931640625
35.698,0.09588623046875
35.708,0.5986328125
35.718,0.85498046875
35.728,0.81689453125
35.738,0.50830078125
35.748,0.0154495239257812
35.758,-0.5390625
35.768,-1.037109375
35.778,-1.3876953125
35.788,-1.537109375
35.798,-1.4677734375
35.807,-1.197265625
35.817,-0.78564453125
35.827,-0.3251953125
35.837,0.08154296875
35.847,0.3486328125
35.857,0.421630859375
35.867,0.294189453125
35.877,0.0154953002929688
35.887,-0.32421875
35.897,-0.619140625
35.907,-0.7763671875
35.917,-0.75146484375
35.927,-0.576171875
35.937,-0.34326171875
35.947,-0.1600341796875
35.957,-0.1058349609375
35.967,-0.2054443359375
35.977,-0.4248046875
35.987,-0.68359375
35.997,-0.88037109375
36.001,-0.11151123046875
36.011,-0.06109619140625
36.021,-0.1766357421875
36.031,-0.40478515625
36.041,-0.623046875
36.051,-0.69140625
36.061,-0.53076171875
36.071,-0.17333984375
36.081,0.25146484375
36.091,0.5810546875
36.101,0.6845703125
36.111,0.51416015625
36.121,0.1280517578125
36.131,-0.33544921875
36.141,-0.71240234375
36.151,-0.86279296875
36.16,-0.72265625
36.17,-0.345703125
36.18,0.112060546875
36.19,0.47802734375
36.2,0.63232421875
36.21,0.5400390625
36.22,0.2509765625
36.23,-0.13134765625
36.24,-0.482177734375
36.25,-0.673828125
36.26,-0.62060546875
36.27,-0.33740234375
36.28,0.054656982421875
36.29,0.384521484375
36.3,0.50341796875
36.31,0.343505859375
36.32,-0.048828125
36.33,-0.53515625
36.34,-0.9521484375
36.35,-1.1767578125
36.358,-1.154296875
36.368,-0.9052734375
36.378,-0.505859375
36.388,-0.0792236328125
36.398,0.2340087890625
36.408,0.33447265625
36.418,0.1893310546875
36.428,-0.174072265625
36.438,-0.66064453125
36.448,-1.1318359375
36.458,-1.4599609375
36.468,-1.55078125
36.478,-1.376953125
36.488,-0.990234375
36.498,-0.47216796875
36.508,0.08587646484375
36.518,0.58251953125
36.528,0.91943359375
36.538,1.0283203125
36.548,0.900390625
36.557,0.56982421875
36.567,0.07379150390625
36.577,-0.54296875
36.587,-1.2021484375
36.597,-1.8056640625
36.607,-2.26953125
36.617,-2.560546875
36.627,-2.69921875
36.637,-2.728515625
36.647,-2.658203125
36.657,-2.48046875
36.667,-2.162109375
36.677,-1.671875
36.687,-1.00390625
36.697,-0.185791015625
36.707,0.736328125
36.717,1.705078125
36.727,2.650390625
36.737,3.49609375
36.747,4.17578125
36.752,4.44140625
36.762,3.962890625
36.772,3.37890625
36.782,2.732421875
36.792,2.04296875
36.802,1.3095703125
36.812,0.52490234375
36.822,-0.304931640625
36.832,-1.138671875
36.842,-1.9140625
36.852,-2.580078125
36.862,-3.11328125
36.872,-3.51953125
36.882,-3.814453125
36.892,-4.01953125
36.902,-4.16015625
36.91,-4.24609375
36.92,-4.29296875
36.93,-4.3203125
36.94,-4.34375
36.95,-4.38671875
36.96,-4.453125
36.97,-4.54296875
36.98,-4.65234375
36.99,-4.75390625
37,-4.83203125
37.01,-4.859375
37.02,-4.8359375
37.03,-4.77734375
37.04,-4.70703125
37.05,-4.64453125
37.06,-4.59765625
37.07,-4.5625
37.08,-4.5390625
37.09,-4.52734375
37.1,-4.52734375
37.108,-4.53125
37.118,-4.54296875
37.128,-4.5625
37.138,-4.60546875
37.148,-4.671875
37.158,-4.7578125
37.168,-4.8359375
37.178,-4.88671875
37.188,-4.89453125
37.198,-4.84375
37.208,-4.70703125
37.218,-4.47265625
37.228,-4.12109375
37.238,-3.650390625
37.248,-3.037109375
37.258,-2.2890625
37.268,-1.44140625
37.278,-0.53466796875
37.288,0.386962890625
37.298,1.2734375
37.307,2.068359375
37.317,2.705078125
37.327,3.099609375
37.337,3.166015625
37.347,2.83203125
37.357,2.08984375
37.367,1.0185546875
37.377,-0.1929931640625
37.387,-1.3037109375
37.397,-2.09375
37.407,-2.43359375
37.417,-2.30859375
37.427,-1.8310546875
37.437,-1.2001953125
37.447,-0.63134765625
37.457,-0.28173828125
37.467,-0.1934814453125
37.477,-0.28076171875
37.487,-0.388671875
37.497,-0.3916015625
37.501,0.4990234375
37.511,0.318115234375
37.521,0.06390380859375
37.531,-0.1336669921875
37.541,-0.2027587890625
37.551,-0.1602783203125
37.561,-0.08642578125
37.571,-0.07000732421875
37.581,-0.140380859375
37.591,-0.244873046875
37.601,-0.311767578125
37.611,-0.32421875
37.621,-0.31396484375
37.631,-0.302978515625
37.641,-0.2724609375
37.651,-0.200927734375
37.66,-0.09930419921875
37.67,-0.0090484619140625
37.68,0.02532958984375
37.69,-0.00750350952148438
37.7,-0.07220458984375
37.71,-0.1278076171875
37.72,-0.1744384765625
37.73,-0.2393798828125
37.74,-0.328369140625
37.75,-0.4033203125
37.76,-0.41748046875
37.77,-0.370361328125
37.78,-0.311767578125
37.79,-0.28759765625
37.8,-0.291259765625
37.81,-0.274169921875
37.82,-0.2078857421875
37.83,-0.11895751953125
37.84,-0.0595703125
37.85,-0.051239013671875
37.858,-0.06622314453125
37.868,-0.06744384765625
37.878,-0.058074951171875
37.888,-0.0738525390625
37.898,-0.13818359375
37.908,-0.246826171875
37.918,-0.382568359375
37.928,-0.5283203125
37.938,-0.6591796875
37.948,-0.74560546875
37.958,-0.78173828125
37.968,-0.79052734375
37.978,-0.7978515625
37.988,-0.802734375
37.998,-0.775390625
38.008,-0.6875
38.018,-0.54736328125
38.028,-0.40283203125
38.038,-0.313720703125
38.048,-0.303955078125
38.057,-0.337646484375
38.067,-0.362060546875
38.077,-0.359619140625
38.087,-0.356689453125
38.097,-0.386474609375
38.107,-0.442626953125
38.117,-0.479736328125
38.127,-0.459716796875
38.137,-0.395751953125
38.147,-0.349365234375
38.157,-0.3740234375
38.167,-0.463134765625
38.177,-0.5576171875
38.187,-0.603515625
38.197,-0.59716796875
38.207,-0.5751953125
38.217,-0.5712890625
38.227,-0.57373046875
38.237,-0.53955078125
38.247,-0.4423828125
38.251,-0.35400390625
38.261,-0.39306640625
38.271,-0.392822265625
38.281,-0.4052734375
38.291,-0.4794921875
38.301,-0.60986328125
38.311,-0.73291015625
38.321,-0.7783203125
38.331,-0.72705078125
38.341,-0.623046875
38.351,-0.5361328125
38.361,-0.51220703125
38.371,-0.5517578125
38.381,-0.61328125
38.391,-0.64697265625
38.401,-0.630859375
38.41,-0.587890625
38.42,-0.56689453125
38.43,-0.59765625
38.44,-0.666015625
38.45,-0.72412109375
38.46,-0.72265625
38.47,-0.646484375
38.48,-0.52587890625
38.49,-0.424072265625
38.5,-0.392578125
38.51,-0.440673828125
38.52,-0.53076171875
38.53,-0.6025390625
38.54,-0.60498046875
38.55,-0.5263671875
38.56,-0.401611328125
38.57,-0.29833984375
38.58,-0.281494140625
38.59,-0.369140625
38.6,-0.51904296875
38.608,-0.654296875
38.618,-0.7080078125
38.628,-0.65966796875
38.638,-0.5400390625
38.648,-0.4130859375
38.658,-0.340576171875
38.668,-0.354736328125
38.678,-0.4453125
38.688,-0.56689453125
38.698,-0.66015625
38.708,-0.67724609375
38.718,-0.60791015625
38.728,-0.49365234375
38.738,-0.404296875
38.748,-0.395263671875
38.758,-0.48095703125
38.768,-0.63037109375
38.778,-0.78369140625
38.788,-0.8720703125
38.798,-0.845703125
38.807,-0.7021484375
38.817,-0.495361328125
38.827,-0.3115234375
38.837,-0.2318115234375
38.847,-0.295166015625
38.857,-0.48388671875
38.867,-0.72900390625
38.877,-0.9404296875
38.887,-1.0419921875
38.897,-0.9990234375
38.907,-0.82568359375
38.917,-0.58837890625
38.927,-0.375244140625
38.937,-0.264892578125
38.947,-0.29931640625
38.957,-0.470703125
38.967,-0.72216796875
38.977,-0.96435546875
38.987,-1.1103515625
38.997,-1.1083984375
39.001,0.04632568359375
39.011,-0.000344514846801758
39.021,-0.211669921875
39.031,-0.53662109375
39.041,-0.89404296875
39.051,-1.1904296875
39.061,-1.3486328125
39.071,-1.330078125
39.081,-1.1455078125
39.091,-0.84814453125
39.101,-0.51611328125
39.111,-0.2257080078125
39.121,-0.03155517578125
39.131,0.029022216796875
39.141,-0.060699462890625
39.151,-0.291259765625
39.159,-0.623046875
39.169,-0.98681640625
39.179,-1.3046875
39.189,-1.5107421875
39.199,-1.56640625
39.209,-1.4599609375
39.219,-1.2001953125
39.229,-0.8203125
39.239,-0.381103515625
39.249,0.041412353515625
39.259,0.365966796875
39.269,0.5283203125
39.279,0.49853515625
39.289,0.27880859375
39.299,-0.09979248046875
39.309,-0.580078125
39.319,-1.0869140625
39.329,-1.5439453125
39.339,-1.884765625
39.349,-2.060546875
39.358,-2.052734375
39.368,-1.8681640625
39.378,-1.5322265625
39.388,-1.0791015625
39.398,-0.55517578125
39.408,-0.03460693359375
39.418,0.39453125
39.428,0.666015625
39.438,0.7666015625
39.448,0.72705078125
39.458,0.58837890625
39.468,0.382080078125
39.478,0.1246337890625
39.488,-0.1856689453125
39.498,-0.56005859375
39.508,-0.99267578125
39.518,-1.4345703125
39.528,-1.8125
39.538,-2.07421875
39.548,-2.193359375
39.557,-2.158203125
39.567,-1.9677734375
39.577,-1.6337890625
39.587,-1.1806640625
39.597,-0.6640625
39.607,-0.165771484375
39.617,0.251953125
39.627,0.5859375
39.637,0.88427734375
39.647,1.1845703125
39.657,1.470703125
39.667,1.69140625
39.677,1.7861328125
39.687,1.7001953125
39.697,1.396484375
39.707,0.892578125
39.717,0.25244140625
39.727,-0.460693359375
39.737,-1.1787109375
39.747,-1.80859375
39.752,-2.35546875
39.762,-1.8310546875
39.772,-1.142578125
39.782,-0.35107421875
39.792,0.459228515625
39.802,1.173828125
39.812,1.6640625
39.822,1.833984375
39.832,1.677734375
39.842,1.2509765625
39.852,0.642578125
39.862,-0.00206565856933594
39.872,-0.54443359375
39.882,-0.91796875
39.892,-1.09375
39.902,-1.0478515625
39.909,-0.7861328125
39.919,-0.361572265625
39.929,0.12481689453125
39.939,0.5400390625
39.949,0.76513671875
39.959,0.75048828125
39.969,0.52685546875
39.979,0.1717529296875
39.989,-0.226806640625
39.999,-0.5732421875
40.009,-0.77685546875
40.019,-0.79345703125
40.029,-0.6611328125
40.039,-0.49609375
40.049,-0.42236328125
40.059,-0.488037109375
40.069,-0.64697265625
40.079,-0.80126953125
40.089,-0.84521484375
40.099,-0.708984375
40.108,-0.40380859375
40.118,-0.03143310546875
40.128,0.26513671875
40.138,0.390869140625
40.148,0.348876953125
40.158,0.2247314453125
40.168,0.12481689453125
40.178,0.111328125
40.188,0.1617431640625
40.198,0.19287109375
40.208,0.135009765625
40.218,-0.018157958984375
40.228,-0.214599609375
40.238,-0.378662109375
40.248,-0.45947265625
40.258,-0.47314453125
40.268,-0.47802734375
40.278,-0.4990234375
40.288,-0.50537109375
40.298,-0.462646484375
40.307,-0.3701171875
40.317,-0.2685546875
40.327,-0.20556640625
40.337,-0.191650390625
40.347,-0.1964111328125
40.357,-0.1881103515625
40.367,-0.16845703125
40.377,-0.1630859375
40.387,-0.1845703125
40.397,-0.22021484375
40.407,-0.251953125
40.417,-0.279052734375
40.427,-0.311279296875
40.437,-0.334716796875
40.447,-0.319091796875
40.457,-0.2607421875
40.467,-0.1905517578125
40.477,-0.1436767578125
40.487,-0.127685546875
40.497,-0.1278076171875
40.501,-0.39013671875
40.511,-0.401123046875
40.521,-0.381591796875
40.531,-0.347900390625
40.541,-0.3046875
40.551,-0.2529296875
40.561,-0.2039794921875
40.571,-0.1693115234375
40.581,-0.14599609375
40.591,-0.12744140625
40.601,-0.1162109375
40.611,-0.11602783203125
40.621,-0.12054443359375
40.631,-0.12115478515625
40.641,-0.116455078125
40.651,-0.10687255859375
40.659,-0.08782958984375
40.669,-0.054840087890625
40.679,-0.0109100341796875
40.689,0.036376953125
40.699,0.0777587890625
40.709,0.0972900390625
40.719,0.078369140625
40.729,0.018585205078125
40.739,-0.07476806640625
40.749,-0.1884765625
40.759,-0.29443359375
40.769,-0.360107421875
40.779,-0.366943359375
40.789,-0.310791015625
40.799,-0.1998291015625
40.809,-0.05963134765625
40.819,0.07330322265625
40.829,0.171875
40.839,0.226318359375
40.849,0.235107421875
40.858,0.205322265625
40.868,0.154541015625
40.878,0.09814453125
40.888,0.045745849609375
40.898,0.00596237182617188
40.908,-0.0130386352539062
40.918,-0.0092010498046875
40.928,0.00550079345703125
40.938,0.0141677856445312
40.948,0.0113372802734375
40.958,0.000898361206054688
40.968,-0.0148162841796875
40.978,-0.034942626953125
40.988,-0.057861328125
40.998,-0.08544921875
41.008,-0.12384033203125
41.018,-0.1737060546875
41.028,-0.2227783203125
41.038,-0.255615234375
41.048,-0.26708984375
41.057,-0.259033203125
41.067,-0.231689453125
41.077,-0.186767578125
41.087,-0.133544921875
41.097,-0.0853271484375
41.107,-0.053131103515625
41.117,-0.045196533203125
41.127,-0.06787109375
41.137,-0.11614990234375
41.147,-0.1685791015625
41.157,-0.197509765625
41.167,-0.1846923828125
41.177,-0.1322021484375
41.187,-0.061492919921875
41.197,0.00642776489257812
41.207,0.0628662109375
41.217,0.10125732421875
41.227,0.1121826171875
41.237,0.09490966796875
41.247,0.062408447265625
41.252,-0.0137786865234375
41.262,-0.08160400390625
41.272,-0.177001953125
41.282,-0.287841796875
41.292,-0.408935546875
41.302,-0.53076171875
41.312,-0.6435546875
41.322,-0.74169921875
41.332,-0.8212890625
41.342,-0.876953125
41.352,-0.904296875
41.362,-0.90478515625
41.372,-0.8916015625
41.382,-0.87744140625
41.392,-0.8671875
41.402,-0.86572265625
41.409,-0.869140625
41.419,-0.8662109375
41.429,-0.85400390625
41.439,-0.828125
41.449,-0.791015625
41.459,-0.75830078125
41.469,-0.73779296875
41.479,-0.736328125
41.489,-0.75927734375
41.499,-0.8046875
41.509,-0.86962890625
41.519,-0.95361328125
41.529,-1.0380859375
41.539,-1.09375
41.549,-1.1064453125
41.559,-1.0732421875
41.569,-1
41.579,-0.91162109375
41.589,-0.8330078125
41.599,-0.76953125
41.608,-0.7265625
41.618,-0.7119140625
41.628,-0.71826171875
41.638,-0.72998046875
41.648,-0.74609375
41.658,-0.77099609375
41.668,-0.80419921875
41.678,-0.8564453125
41.688,-0.9384765625
41.698,-1.037109375
41.708,-1.1142578125
41.718,-1.1484375
41.728,-1.1435546875
41.738,-1.1025390625
41.748,-1.0234375
41.758,-0.92578125
41.768,-0.845703125
41.778,-0.79931640625
41.788,-0.7763671875
41.798,-0.7783203125
41.807,-0.8212890625
41.817,-0.89013671875
41.827,-0.9296875
41.837,-0.90087890625
41.847,-0.8193359375
41.857,-0.724609375
41.867,-0.6298828125
41.877,-0.5302734375
41.887,-0.44580078125
41.897,-0.421630859375
41.907,-0.479248046875
41.917,-0.58447265625
41.927,-0.68408203125
41.937,-0.76513671875
41.947,-0.86572265625
41.957,-1.0087890625
41.967,-1.1572265625
41.977,-1.2353515625
41.987,-1.205078125
41.997,-1.1005859375
42.001,-0.52001953125
42.011,-0.455322265625
42.021,-0.50341796875
42.031,-0.63720703125
42.041,-0.77197265625
42.051,-0.82861328125
42.061,-0.7880859375
42.071,-0.69970703125
42.081,-0.6396484375
42.091,-0.658203125
42.101,-0.74462890625
42.111,-0.83056640625
42.121,-0.84423828125
42.131,-0.76806640625
42.141,-0.6572265625
42.151,-0.59521484375
42.159,-0.63232421875
42.169,-0.75146484375
42.179,-0.876953125
42.189,-0.923828125
42.199,-0.841796875
42.209,-0.64599609375
42.219,-0.406005859375
42.229,-0.2213134765625
42.239,-0.1756591796875
42.249,-0.297607421875
42.259,-0.54248046875
42.269,-0.81640625
42.279,-1.0185546875
42.289,-1.0830078125
42.299,-1.0048828125
42.309,-0.82763671875
42.319,-0.62841796875
42.329,-0.489990234375
42.339,-0.469482421875
42.349,-0.578125
42.358,-0.77880859375
42.368,-1.001953125
42.378,-1.1689453125
42.388,-1.2197265625
42.398,-1.126953125
42.408,-0.90771484375
42.418,-0.607421875
42.428,-0.29150390625
42.438,-0.031463623046875
42.448,0.1051025390625
42.458,0.06695556640625
42.468,-0.16162109375
42.478,-0.54931640625
42.488,-1.0244140625
42.498,-1.494140625
42.508,-1.8671875
42.518,-2.06640625
42.528,-2.046875
42.538,-1.794921875
42.548,-1.3388671875
42.557,-0.75390625
42.567,-0.144287109375
42.577,0.380859375
42.587,0.73681640625
42.597,0.876953125
42.607,0.79248046875
42.617,0.50439453125
42.627,0.053558349609375
42.637,-0.50537109375
42.647,-1.1083984375
42.657,-1.6923828125
42.667,-2.2109375
42.677,-2.6328125
42.687,-2.9453125
42.697,-3.154296875
42.707,-3.279296875
42.717,-3.34765625
42.727,-3.3828125
42.737,-3.396484375
42.747,-3.388671875
42.752,-3.236328125
42.762,-3.259765625
42.772,-3.314453125
42.782,-3.390625
42.792,-3.478515625
42.802,-3.568359375
42.812,-3.6484375
42.822,-3.70703125
42.832,-3.732421875
42.842,-3.71875
42.852,-3.67578125
42.862,-3.6171875
42.872,-3.560546875
42.882,-3.521484375
42.892,-3.5
42.902,-3.498046875
42.909,-3.515625
42.919,-3.546875
42.929,-3.59375
42.939,-3.63671875
42.949,-3.658203125
42.959,-3.630859375
42.969,-3.541015625
42.979,-3.37109375
42.989,-3.125
42.999,-2.79296875
43.009,-2.359375
43.019,-1.80078125
43.029,-1.11328125
43.039,-0.337646484375
43.049,0.450927734375
43.059,1.15625
43.069,1.6923828125
43.079,2
43.089,2.044921875
43.099,1.8251953125
43.108,1.37890625
43.118,0.79443359375
43.128,0.1663818359375
43.138,-0.428955078125
43.148,-0.9501953125
43.158,-1.3935546875
43.168,-1.765625
43.178,-2.044921875
43.188,-2.181640625
43.198,-2.123046875
43.208,-1.8427734375
43.218,-1.359375
43.228,-0.740234375
43.238,-0.08392333984375
43.248,0.5302734375
43.258,1.068359375
43.268,1.5029296875
43.278,1.791015625
43.288,1.9189453125
43.298,1.9150390625
43.303,0.65771484375
43.313,0.1630859375
43.323,-0.380615234375
43.333,-0.92041015625
43.343,-1.4033203125
43.353,-1.7998046875
43.363,-2.10546875
43.373,-2.32421875
43.383,-2.458984375
43.393,-2.51171875
43.403,-2.478515625
43.413,-2.357421875
43.423,-2.1796875
43.433,-1.9677734375
43.443,-1.73046875
43.453,-1.4970703125
43.46,-1.310546875
43.47,-1.201171875
43.48,-1.1826171875
43.49,-1.25
43.5,-1.3486328125
43.51,-1.396484375
43.52,-1.3291015625
43.53,-1.1240234375
43.54,-0.7861328125
43.55,-0.3544921875
43.56,0.087646484375
43.57,0.46435546875
43.58,0.7197265625
43.59,0.8056640625
43.6,0.71728515625
43.61,0.50341796875
43.62,0.218994140625
43.63,-0.09100341796875
43.64,-0.378662109375
43.65,-0.60302734375
43.659,-0.744140625
43.669,-0.79736328125
43.679,-0.7822265625
43.689,-0.75
43.699,-0.7578125
43.709,-0.83544921875
43.719,-0.9814453125
43.729,-1.1689453125
43.739,-1.357421875
43.749,-1.4951171875
43.759,-1.5234375
43.769,-1.3955078125
43.779,-1.09375
43.789,-0.63671875
43.799,-0.06292724609375
43.809,0.57763671875
43.819,1.228515625
43.829,1.826171875
43.839,2.30859375
43.849,2.630859375
43.858,2.76171875
43.868,2.6796875
43.878,2.373046875
43.888,1.853515625
43.898,1.1708984375
43.908,0.41162109375
43.918,-0.314697265625
43.928,-0.89794921875
43.938,-1.2509765625
43.948,-1.3359375
43.958,-1.1689453125
43.968,-0.81396484375
43.978,-0.359619140625
43.988,0.090087890625
43.998,0.435302734375
44.008,0.60498046875
44.018,0.57861328125
44.028,0.385498046875
44.038,0.1021728515625
44.048,-0.1649169921875
44.053,0.642578125
44.063,0.912109375
44.073,0.98583984375
44.083,0.82568359375
44.093,0.471923828125
44.103,0.028167724609375
44.113,-0.3798828125
44.123,-0.64453125
44.133,-0.69677734375
44.143,-0.52685546875
44.153,-0.2073974609375
44.163,0.11419677734375
44.173,0.298828125
44.183,0.300048828125
44.193,0.15283203125
44.203,-0.065185546875
44.21,-0.2578125
44.22,-0.34765625
44.23,-0.300537109375
44.24,-0.11395263671875
44.25,0.17919921875
44.26,0.487060546875
44.27,0.671875
44.28,0.62451171875
44.29,0.3447265625
44.3,-0.052581787109375
44.31,-0.400390625
44.32,-0.552734375
44.33,-0.45361328125
44.34,-0.1787109375
44.35,0.09527587890625
44.36,0.204345703125
44.37,0.10540771484375
44.38,-0.10174560546875
44.39,-0.248291015625
44.4,-0.21875
44.409,-0.03851318359375
44.419,0.1473388671875
44.429,0.1885986328125
44.439,0.047149658203125
44.449,-0.1845703125
44.459,-0.366455078125
44.469,-0.4169921875
44.479,-0.362548828125
44.489,-0.298095703125
44.499,-0.291015625
44.509,-0.322021484375
44.519,-0.31982421875
44.529,-0.25048828125
44.539,-0.152587890625
44.549,-0.09075927734375
44.559,-0.08489990234375
44.569,-0.091552734375
44.579,-0.061248779296875
44.589,-0.00560379028320312
44.599,0.0145950317382812
44.608,-0.03192138671875
44.618,-0.104736328125
44.628,-0.14111328125
44.638,-0.1282958984375
44.648,-0.10198974609375
44.658,-0.0849609375
44.668,-0.057037353515625
44.678,0.004669189453125
44.688,0.08123779296875
44.698,0.1295166015625
44.708,0.1300048828125
44.718,0.1005859375
44.728,0.067626953125
44.738,0.038055419921875
44.748,0.0077362060546875
44.758,-0.024383544921875
44.768,-0.05511474609375
44.778,-0.07525634765625
44.788,-0.07098388671875
44.798,-0.038482666015625
44.803,-0.0650634765625
44.813,-0.1412353515625
44.823,-0.2103271484375
44.833,-0.2469482421875
44.843,-0.226806640625
44.853,-0.1527099609375
44.863,-0.05340576171875
44.873,0.038116455078125
44.883,0.1043701171875
44.893,0.14111328125
44.903,0.13916015625
44.913,0.0863037109375
44.923,-0.0160064697265625
44.933,-0.1414794921875
44.943,-0.2393798828125
44.953,-0.26953125
44.96,-0.23046875
44.97,-0.151123046875
44.98,-0.07794189453125
44.99,-0.045562744140625
45,-0.056488037109375
45.01,-0.10235595703125
45.02,-0.173095703125
45.03,-0.243408203125
45.04,-0.2841796875
45.05,-0.27880859375
45.06,-0.224365234375
45.07,-0.1402587890625
45.08,-0.0706787109375
45.09,-0.044342041015625
45.1,-0.0457763671875
45.11,-0.04254150390625
45.12,-0.03106689453125
45.13,-0.037567138671875
45.14,-0.07342529296875
45.15,-0.1202392578125
45.159,-0.1600341796875
45.169,-0.1873779296875
45.179,-0.1986083984375
45.189,-0.1968994140625
45.199,-0.1912841796875
45.209,-0.1805419921875
45.219,-0.1553955078125
45.229,-0.11297607421875
45.239,-0.0631103515625
45.249,-0.0245361328125
45.259,-0.00850677490234375
45.269,-0.0112991333007812
45.279,-0.0263824462890625
45.289,-0.052276611328125
45.299,-0.09375
45.309,-0.1607666015625
45.319,-0.253662109375
45.329,-0.34912109375
45.339,-0.41455078125
45.349,-0.428955078125
45.358,-0.38671875
45.368,-0.291015625
45.378,-0.1611328125
45.388,-0.033203125
45.398,0.06170654296875
45.408,0.11676025390625
45.418,0.1395263671875
45.428,0.13671875
45.438,0.1156005859375
45.448,0.08544921875
45.458,0.051483154296875
45.468,0.0148391723632812
45.478,-0.0207366943359375
45.488,-0.04583740234375
45.498,-0.05267333984375
45.508,-0.044525146484375
45.518,-0.0338134765625
45.528,-0.0301055908203125
45.538,-0.03424072265625
45.548,-0.0428466796875
45.553,-0.106689453125
45.563,-0.11822509765625
45.573,-0.12017822265625
45.583,-0.11444091796875
45.593,-0.10382080078125
45.603,-0.0850830078125
45.613,-0.055084228515625
45.623,-0.0203094482421875
45.633,0.00690078735351562
45.643,0.021575927734375
45.653,0.0241546630859375
45.663,0.0121917724609375
45.673,-0.0101699829101562
45.683,-0.0272674560546875
45.693,-0.029327392578125
45.703,-0.0212554931640625
45.71,-0.00881195068359375
45.72,0.010162353515625
45.73,0.035400390625
45.74,0.057830810546875
45.75,0.07061767578125
45.76,0.0767822265625
45.77,0.0784912109375
45.78,0.06683349609375
45.79,0.033477783203125
45.8,-0.00852203369140625
45.81,-0.034027099609375
45.82,-0.033721923828125
45.83,-0.0122146606445312
45.84,0.024261474609375
45.85,0.064697265625
45.86,0.09942626953125
45.87,0.127197265625
45.88,0.14306640625
45.89,0.1326904296875
45.9,0.09185791015625
45.909,0.036895751953125
45.919,-0.0106277465820312
45.929,-0.043487548828125
45.939,-0.06353759765625
45.949,-0.069580078125
45.959,-0.061431884765625
45.969,-0.04541015625
45.979,-0.0300445556640625
45.989,-0.0191497802734375
45.999,-0.0115585327148438
46.009,-0.00401687622070312
46.019,0.0079803466796875
46.029,0.0245819091796875
46.039,0.0384521484375
46.049,0.04620361328125
46.059,0.05242919921875
46.069,0.05755615234375
46.079,0.0533447265625
46.089,0.0325927734375
46.099,-0.00114154815673828
46.108,-0.03857421875
46.118,-0.074462890625
46.128,-0.10546875
46.138,-0.1300048828125
46.148,-0.150146484375
46.158,-0.1634521484375
46.168,-0.1624755859375
46.178,-0.1451416015625
46.188,-0.118408203125
46.198,-0.09326171875
46.208,-0.0771484375
46.218,-0.07086181640625
46.228,-0.07122802734375
46.238,-0.07257080078125
46.248,-0.07135009765625
46.258,-0.07208251953125
46.268,-0.07952880859375
46.278,-0.0888671875
46.288,-0.0938720703125
46.298,-0.094482421875
46.303,-0.131103515625
46.313,-0.1297607421875
46.323,-0.113037109375
46.333,-0.08251953125
46.343,-0.05242919921875
46.353,-0.0372314453125
46.363,-0.037811279296875
46.373,-0.050384521484375
46.383,-0.07305908203125
46.393,-0.10076904296875
46.403,-0.12841796875
46.413,-0.1553955078125
46.423,-0.17919921875
46.433,-0.193359375
46.443,-0.1937255859375
46.453,-0.18408203125
46.46,-0.1676025390625
46.47,-0.14501953125
46.48,-0.1209716796875
46.49,-0.10565185546875
46.5,-0.10693359375
46.51,-0.12200927734375
46.52,-0.1416015625
46.53,-0.1568603515625
46.54,-0.1591796875
46.55,-0.1468505859375
46.56,-0.1324462890625
46.57,-0.1322021484375
46.58,-0.14892578125
46.59,-0.173095703125
46.6,-0.1988525390625
46.61,-0.2271728515625
46.62,-0.253173828125
46.63,-0.2666015625
46.64,-0.266845703125
46.65,-0.2587890625
46.659,-0.2391357421875
46.669,-0.20361328125
46.679,-0.1558837890625
46.689,-0.10845947265625
46.699,-0.07830810546875
46.709,-0.07452392578125
46.719,-0.09161376953125
46.729,-0.11883544921875
46.739,-0.151611328125
46.749,-0.1845703125
46.759,-0.2066650390625
46.769,-0.21435546875
46.779,-0.21484375
46.789,-0.2119140625
46.799,-0.207275390625
46.809,-0.2025146484375
46.819,-0.196533203125
46.829,-0.1942138671875
46.839,-0.2099609375
46.849,-0.245849609375
46.858,-0.281005859375
46.868,-0.2919921875
46.878,-0.27099609375
46.888,-0.232666015625
46.898,-0.2021484375
46.908,-0.1904296875
46.918,-0.18505859375
46.928,-0.1790771484375
46.938,-0.187744140625
46.948,-0.2255859375
46.958,-0.287841796875
46.968,-0.35107421875
46.978,-0.37890625
46.988,-0.35205078125
46.998,-0.29638671875
47.008,-0.252197265625
47.018,-0.22900390625
47.028,-0.2054443359375
47.038,-0.1619873046875
47.048,-0.1026611328125
47.053,-0.38427734375
47.063,-0.44140625
47.073,-0.442626953125
47.083,-0.402099609375
47.093,-0.343505859375
47.103,-0.288818359375
47.113,-0.255126953125
47.123,-0.2451171875
47.133,-0.2452392578125
47.143,-0.2484130859375
47.153,-0.2666015625
47.163,-0.318359375
47.173,-0.412841796875
47.183,-0.54443359375
47.193,-0.69189453125
47.203,-0.83447265625
47.21,-0.95751953125
47.22,-1.048828125
47.23,-1.0986328125
47.24,-1.109375
47.25,-1.0888671875
47.26,-1.052734375
47.27,-1.01171875
47.28,-0.9716796875
47.29,-0.931640625
47.3,-0.90283203125
47.31,-0.8974609375
47.32,-0.9189453125
47.33,-0.96240234375
47.34,-1.015625
47.35,-1.0625
47.36,-1.08984375
47.37,-1.0908203125
47.38,-1.0673828125
47.39,-1.02734375
47.4,-0.98095703125
47.409,-0.9384765625
47.419,-0.90673828125
47.429,-0.88818359375
47.439,-0.88671875
47.449,-0.9091796875
47.459,-0.9560546875
47.469,-1.0166015625
47.479,-1.0771484375
47.489,-1.1201171875
47.499,-1.1318359375
47.509,-1.1025390625
47.519,-1.03515625
47.529,-0.9482421875
47.539,-0.86279296875
47.549,-0.7958984375
47.559,-0.76513671875
47.569,-0.77783203125
47.579,-0.8203125
47.589,-0.873046875
47.599,-0.92626953125
47.608,-0.97265625
47.618,-1.0068359375
47.628,-1.033203125
47.638,-1.0537109375
47.648,-1.0654296875
47.658,-1.0625
47.668,-1.0498046875
47.678,-1.0283203125
47.688,-1.0029296875
47.698,-0.9833984375
47.708,-0.98486328125
47.718,-1.01171875
47.728,-1.0537109375
47.738,-1.0947265625
47.748,-1.119140625
47.758,-1.115234375
47.768,-1.078125
47.778,-1.0107421875
47.788,-0.92626953125
47.798,-0.84228515625
47.801,-0.98486328125
47.811,-1.0810546875
47.821,-1.1435546875
47.831,-1.162109375
47.841,-1.1416015625
47.851,-1.091796875
47.861,-1.02734375
47.871,-0.9599609375
47.881,-0.8984375
47.891,-0.85205078125
47.901,-0.83447265625
47.911,-0.8515625
47.921,-0.89697265625
47.931,-0.9599609375
47.941,-1.0234375
47.951,-1.0693359375
47.96,-1.08203125
47.97,-1.0595703125
47.98,-1.0068359375
47.99,-0.93701171875
48,-0.86572265625
48.01,-0.8125
48.02,-0.79443359375
48.03,-0.81298828125
48.04,-0.8564453125
48.05,-0.90673828125
48.06,-0.9482421875
48.07,-0.96875
48.08,-0.96630859375
48.09,-0.95263671875
48.1,-0.9423828125
48.11,-0.9443359375
48.12,-0.958984375
48.13,-0.9814453125
48.14,-1.001953125
48.15,-1.0146484375
48.159,-1.01953125
48.169,-1.0185546875
48.179,-1.0078125
48.189,-0.9833984375
48.199,-0.947265625
48.209,-0.9091796875
48.219,-0.87841796875
48.229,-0.85791015625
48.239,-0.8466796875
48.249,-0.8486328125
48.259,-0.86376953125
48.269,-0.88525390625
48.279,-0.90869140625
48.289,-0.9306640625
48.299,-0.94482421875
48.309,-0.94873046875
48.319,-0.94189453125
48.329,-0.92919921875
48.339,-0.92236328125
48.349,-0.92626953125
48.357,-0.94384765625
48.367,-0.978515625
48.377,-1.0185546875
48.387,-1.048828125
48.397,-1.0625
48.407,-1.0517578125
48.417,-1.0126953125
48.427,-0.95361328125
48.437,-0.8857421875
48.447,-0.828125
48.457,-0.80029296875
48.467,-0.80224609375
48.477,-0.82421875
48.487,-0.8701171875
48.497,-0.93603515625
48.507,-1.0009765625
48.517,-1.056640625
48.527,-1.103515625
48.537,-1.126953125
48.547,-1.1123046875
48.552,-0.76708984375
48.562,-0.75732421875
48.572,-0.7841796875
48.582,-0.85986328125
48.592,-0.9609375
48.602,-1.03125
48.612,-1.0419921875
48.622,-1.0185546875
48.632,-1
48.642,-0.9853515625
48.652,-0.95166015625
48.662,-0.90576171875
48.672,-0.88720703125
48.682,-0.908203125
48.692,-0.93212890625
48.702,-0.9248046875
48.71,-0.89990234375
48.72,-0.8974609375
48.73,-0.9208984375
48.74,-0.9248046875
48.75,-0.869140625
48.76,-0.77099609375
48.77,-0.7021484375
48.78,-0.7177734375
48.79,-0.80078125
48.8,-0.8740234375
48.81,-0.86669921875
48.82,-0.77099609375
48.83,-0.65625
48.84,-0.6181640625
48.85,-0.7099609375
48.86,-0.904296875
48.87,-1.109375
48.88,-1.2255859375
48.89,-1.19921875
48.9,-1.056640625
48.909,-0.8828125
48.919,-0.77294921875
48.929,-0.7802734375
48.939,-0.88818359375
48.949,-1.02734375
48.959,-1.1123046875
48.969,-1.0791015625
48.979,-0.919921875
48.989,-0.68408203125
48.999,-0.460693359375
49.009,-0.344482421875
49.019,-0.396728515625
49.029,-0.61474609375
49.039,-0.92822265625
49.049,-1.2314453125
49.059,-1.4296875
49.069,-1.4658203125
49.079,-1.3330078125
49.089,-1.0693359375
49.099,-0.74169921875
49.107,-0.43408203125
49.117,-0.2196044921875
49.127,-0.1466064453125
49.137,-0.2318115234375
49.147,-0.462646484375
49.157,-0.79931640625
49.167,-1.1826171875
49.177,-1.5498046875
49.187,-1.853515625
49.197,-2.07421875
49.207,-2.216796875
49.217,-2.294921875
49.227,-2.322265625
49.237,-2.314453125
49.247,-2.29296875
49.257,-2.275390625
49.267,-2.271484375
49.277,-2.291015625
49.287,-2.34765625
49.297,-2.455078125
49.301,-3.35546875
49.311,-3.4296875
49.321,-3.439453125
49.331,-3.41796875
49.341,-3.3984375
49.351,-3.400390625
49.361,-3.419921875
49.371,-3.431640625
49.381,-3.392578125
49.391,-3.271484375
49.401,-3.044921875
49.411,-2.697265625
49.421,-2.21484375
49.431,-1.603515625
49.441,-0.8984375
49.451,-0.17431640625
49.46,0.466552734375
49.47,0.91796875
49.48,1.0947265625
49.49,0.958984375
49.5,0.52978515625
49.51,-0.10504150390625
49.52,-0.8154296875
49.53,-1.46875
49.54,-1.9580078125
49.55,-2.212890625
49.56,-2.193359375
49.57,-1.904296875
49.58,-1.3876953125
49.59,-0.73681640625
49.6,-0.07666015625
49.61,0.46484375
49.62,0.7841796875
49.63,0.8212890625
49.64,0.58056640625
49.65,0.1407470703125
49.659,-0.377197265625
49.669,-0.83935546875
49.679,-1.12109375
49.689,-1.1435546875
49.699,-0.9248046875
49.709,-0.583984375
49.719,-0.296875
49.729,-0.20263671875
49.739,-0.3408203125
49.749,-0.64599609375
49.759,-0.98974609375
49.769,-1.220703125
49.779,-1.21875
49.789,-0.96826171875
49.799,-0.58740234375
49.809,-0.27001953125
49.819,-0.174072265625
49.829,-0.3349609375
49.839,-0.66015625
49.849,-0.9912109375
49.857,-1.1728515625
49.867,-1.125
49.877,-0.88427734375
49.887,-0.58837890625
49.897,-0.395751953125
49.907,-0.3974609375
49.917,-0.57275390625
49.927,-0.80126953125
49.937,-0.93310546875
49.947,-0.8955078125
49.957,-0.7353515625
49.967,-0.578125
49.977,-0.5419921875
49.987,-0.640625
49.997,-0.77685546875
50.007,-0.830078125
50.017,-0.7216796875
50.027,-0.44970703125
50.037,-0.10504150390625
50.047,0.1671142578125
50.052,-0.73876953125
50.062,-0.640625
50.072,-0.291015625
50.082,0.1866455078125
50.092,0.61181640625
50.102,0.82275390625
50.112,0.751953125
50.122,0.444580078125
50.132,0.0134735107421875
50.142,-0.409912109375
50.152,-0.71875
50.162,-0.8662109375
50.172,-0.86376953125
50.182,-0.74072265625
50.192,-0.5224609375
50.202,-0.2396240234375
50.21,0.06439208984375
50.22,0.348388671875
50.23,0.5810546875
50.24,0.72998046875
50.25,0.75830078125
50.26,0.64111328125
50.27,0.3720703125
50.28,-0.0312347412109375
50.29,-0.5234375
50.3,-1.03125
50.31,-1.474609375
50.32,-1.775390625
50.33,-1.8828125
50.34,-1.7802734375
50.35,-1.490234375
50.36,-1.05078125
50.37,-0.5087890625
50.38,0.0687255859375
50.39,0.60400390625
50.4,1.015625
50.409,1.2265625
50.419,1.169921875
50.429,0.826171875
50.439,0.247314453125
50.449,-0.44189453125
50.459,-1.0859375
50.469,-1.5546875
50.479,-1.7705078125
50.489,-1.701171875
50.499,-1.361328125
50.509,-0.826171875
50.519,-0.2052001953125
50.529,0.39306640625
50.539,0.88525390625
50.549,1.220703125
50.559,1.380859375
50.569,1.3740234375
50.579,1.23046875
50.589,0.9912109375
50.599,0.6865234375
50.607,0.335693359375
50.617,-0.04443359375
50.627,-0.438232421875
50.637,-0.8369140625
50.647,-1.2333984375
50.657,-1.6201171875
50.667,-1.9873046875
50.677,-2.32421875
50.687,-2.615234375
50.697,-2.8359375
50.707,-2.96484375
50.717,-2.982421875
50.727,-2.875
50.737,-2.634765625
50.747,-2.26953125
50.757,-1.8056640625
50.767,-1.28515625
50.777,-0.75830078125
50.787,-0.266845703125
50.797,0.16357421875
50.801,1.126953125
50.811,1.03125
50.821,0.79150390625
50.831,0.406005859375
50.841,-0.07293701171875
50.851,-0.5537109375
50.861,-0.93994140625
50.871,-1.1650390625
50.881,-1.208984375
50.891,-1.087890625
50.901,-0.83154296875
50.911,-0.47021484375
50.921,-0.044036865234375
50.931,0.37939453125
50.941,0.70166015625
50.951,0.8291015625
50.96,0.72412109375
50.97,0.424072265625
50.98,0.0157623291015625
50.99,-0.400634765625
51,-0.740234375
51.01,-0.93994140625
51.02,-0.96044921875
51.03,-0.796875
51.04,-0.49755859375
51.05,-0.161865234375
51.06,0.09893798828125
51.07,0.2154541015625
51.08,0.19775390625
51.09,0.12030029296875
51.1,0.0638427734375
51.11,0.07257080078125
51.12,0.1402587890625
51.13,0.216796875
51.14,0.23828125
51.15,0.1724853515625
51.159,0.0399169921875
51.169,-0.10626220703125
51.179,-0.2156982421875
51.189,-0.26708984375
51.199,-0.2724609375
51.209,-0.256591796875
51.219,-0.2271728515625
51.229,-0.1763916015625
51.239,-0.1085205078125
51.249,-0.049224853515625
51.259,-0.0278472900390625
51.269,-0.0587158203125
51.279,-0.131591796875
51.289,-0.2193603515625
51.299,-0.30126953125
51.309,-0.372802734375
51.319,-0.426025390625
51.329,-0.437255859375
51.339,-0.390380859375
51.349,-0.305908203125
51.357,-0.228515625
51.367,-0.1806640625
51.377,-0.14697265625
51.387,-0.10821533203125
51.397,-0.0716552734375
51.407,-0.0611572265625
51.417,-0.0853271484375
51.427,-0.126953125
51.437,-0.162841796875
51.447,-0.18701171875
51.457,-0.2054443359375
51.467,-0.2110595703125
51.477,-0.1846923828125
51.487,-0.1307373046875
51.497,-0.0889892578125
51.507,-0.0899658203125
51.517,-0.1121826171875
51.527,-0.10955810546875
51.537,-0.074462890625
51.547,-0.048004150390625
51.552,-0.1759033203125
51.562,-0.1578369140625
51.572,-0.1234130859375
51.582,-0.04888916015625
51.592,0.059661865234375
51.602,0.1561279296875
51.612,0.19580078125
51.622,0.177978515625
51.632,0.139892578125
51.642,0.113525390625
51.652,0.09613037109375
51.662,0.0687255859375
