Time,GyroX
0.227,15.9200010299683
0.237,-106.330001831055
0.247,-251.440017700195
0.257,-13.7900009155273
0.267,6.68000030517578
0.277,11.2300004959106
0.287,-6.37000036239624
0.297,-14.2800006866455
0.307,-9.03000068664551
0.317,-0.490000009536743
0.327,-0.770000040531158
0.337,-18.0900001525879
0.347,-28.5900020599365
0.357,-32.620002746582
0.367,-46.9000015258789
0.377,-54.6000022888184
0.387,-30.4500007629395
0.397,-24.0100002288818
0.407,-37.2400016784668
0.417,-33.4600028991699
0.427,-27.2600021362305
0.437,-26.1100006103516
0.447,-29.9200019836426
0.457,-9.41000080108643
0.467,7.1700005531311
0.477,1.99000012874603
0.487,-10.3900003433228
0.497,-8.1200008392334
0.507,3.29000020027161
0.517,6.75000047683716
0.527,-0.100000001490116
0.537,49.2100028991699
0.547,78.6800003051758
0.557,50.8200035095215
0.567,13.5100002288818
0.577,33
0.587,31.2900009155273
0.597,-14.0300006866455
0.607,28.8000011444092
0.617,61.3500022888184
0.621,-42.5900001525879
0.631,1.4300000667572
0.641,33.7400016784668
0.651,-13.4400005340576
0.661,-53.6500015258789
0.671,1.96000003814697
0.681,-34.7200012207031
0.691,-13.3300008773804
0.701,32.2300033569336
0.711,37.2400016784668
0.721,-23.1000003814697
0.731,-29.7800006866455
0.741,5.91000032424927
0.751,-64.7800064086914
0.761,-41.1900024414062
0.771,21.7000007629395
0.779,5.91000032424927
0.789,-64.4000015258789
0.799,-18.8300018310547
0.809,-48.2600021362305
0.819,-45.0800018310547
0.829,33.1400032043457
0.839,51.1300010681152
0.849,9.17000007629395
0.859,11.2300004959106
0.869,9.38000011444092
0.879,34.9600028991699
0.889,25.7900009155273
0.899,18.9700012207031
0.909,-26.6700019836426
0.919,6.47000026702881
0.929,-46.6900024414062
0.939,38.8800010681152
0.949,1.6100001335144
0.959,50.8900032043457
0.969,38.5300025939941
0.978,-45.4600028991699
0.988,-7.21000051498413
0.998,15.6400003433228
1.008,-1.85000014305115
1.018,-22.9900016784668
1.028,-45.6400032043457
1.038,-2.90000009536743
1.048,12.4200010299683
1.058,-5.1100001335144
1.068,46.6500015258789
1.078,-33.4200019836426
1.088,-51.8000030517578
1.098,8.22000026702881
1.108,-16.310001373291
1.118,-60.9000015258789
1.128,-70.1000061035156
1.138,3.95000028610229
1.148,22.4700012207031
1.158,-6.16000032424927
1.168,44.3400039672852
1.177,-52.3900032043457
1.187,-41.0900001525879
1.197,52.1100006103516
1.207,63.7000045776367
1.217,30.8000011444092
1.227,-11.3000001907349
1.237,61.9500045776367
1.247,84.8400039672852
1.257,65.5200042724609
1.267,10.7800006866455
1.277,-56.4500045776367
1.287,26.4200019836426
1.297,50.5700035095215
1.307,33.2100028991699
1.317,-72.6900024414062
1.327,-43.120002746582
1.337,30.1300010681152
1.347,38.8800010681152
1.357,-65.1300048828125
1.367,-93.8000030517578
1.372,10.5300006866455
1.382,35.0300025939941
1.392,10.710000038147
1.402,-62.9600028991699
1.412,-8.53999996185303
1.422,42.9400024414062
1.432,35.2100028991699
1.442,-20.6500015258789
1.452,-10.8800001144409
1.462,27.8900012969971
1.472,31.7400016784668
1.482,-28.8400020599365
1.492,-17.5700016021729
1.502,31.3900012969971
1.512,26.3200016021729
1.522,-8.96000003814697
1.529,-10.2200002670288
1.539,37.9700012207031
1.549,2.24000000953674
1.559,6.44000053405762
1.569,-1.40000009536743
1.579,37.1700019836426
1.589,-13.8200006484985
1.599,16.6900005340576
1.609,28.3500022888184
1.619,34.5400009155273
1.629,-28.3500022888184
1.639,7.10000038146973
1.649,15.3300008773804
1.659,-11.3700008392334
1.669,-39.9700012207031
1.679,-4.69000005722046
1.689,-5.91000032424927
1.699,-55.0900039672852
1.709,-49.3500022888184
1.719,-26.3500003814697
1.728,-21.3800010681152
1.738,-82.7400054931641
1.748,-28.8400020599365
1.758,-26.980001449585
1.768,-36.5400009155273
1.778,-67.6500015258789
1.788,-24.0800018310547
1.798,6.47000026702881
1.808,-33.560001373291
1.818,0.980000019073486
1.828,-9.69000053405762
1.838,26.8400020599365
1.848,-16.6900005340576
1.858,15.0100011825562
1.868,20.8200016021729
1.878,10.1800003051758
1.888,13.7900009155273
1.898,20.7500019073486
1.908,20.0200004577637
1.918,7.94000053405762
1.927,28.9100017547607
1.937,22.8200016021729
1.947,-2.59000015258789
1.957,8.75
1.967,14.7700004577637
1.977,36.120002746582
1.987,-8.40000057220459
1.997,21.6600017547607
2.007,50.2200012207031
2.017,10.4300003051758
2.027,-3.74000024795532
2.037,18.0200004577637
2.047,50.5000038146973
2.057,8.82000064849854
2.067,19.810001373291
2.077,49.8400039672852
2.087,14.3800010681152
2.097,-49.9400024414062
2.107,17.1500015258789
2.117,53.060001373291
2.12,-52.2900009155273
2.13,-28.4900016784668
2.14,43.8900032043457
2.15,35.560001373291
2.16,2.41000008583069
2.17,45.4600028991699
2.18,57.5000038146973
2.19,-20.9300003051758
2.2,-40.4200019836426
2.21,19
2.22,19.980001449585
2.23,-21.0700016021729
2.24,15.2600011825562
2.25,73.6700057983398
2.26,70.0300064086914
2.27,-9.97000026702881
2.279,-3.99000024795532
2.289,27.6100006103516
2.299,-0.170000001788139
2.309,-80.25
2.319,59.5000038146973
2.329,22.4000015258789
2.339,-7.52000045776367
2.349,7.73000049591064
2.359,9.52000045776367
2.369,7.38000011444092
2.379,-56.5200042724609
2.389,66.9900054931641
2.399,57.0500030517578
2.409,-18.9000015258789
2.419,3.3600001335144
2.429,38.0400009155273
2.439,4.13000011444092
2.449,-25.6500015258789
2.459,39.060001373291
2.469,31.6700019836426
2.478,-21.1000003814697
2.488,9.3100004196167
2.498,67.6500015258789
2.508,-0.980000019073486
2.518,10.1100006103516
2.528,68.7700042724609
2.538,-7.28000020980835
2.548,-22.2200012207031
2.558,9.10000038146973
2.568,21.6300010681152
2.578,-24.2900009155273
2.588,20.5400009155273
2.598,50.3600006103516
2.608,-3.53000020980835
2.618,-7.21000051498413
2.628,43.9600028991699
2.638,-26.2500019073486
2.648,-73.6000061035156
2.658,46.3000030517578
2.668,28.310001373291
2.673,15.8200006484985
2.683,81.7600021362305
2.693,14.3800010681152
2.703,-19.6000003814697
2.713,80.1800003051758
2.723,24.9500007629395
2.733,-58.620002746582
2.743,51.310001373291
2.753,77.2800064086914
2.763,-10.9900007247925
2.773,-11.0200004577637
2.783,48.3300018310547
2.793,-74.2300033569336
2.803,-60.8300018310547
2.813,49.9400024414062
2.823,26.0000019073486
2.837,-14.5200004577637
2.847,-10.8800001144409
2.857,-16.9000015258789
2.867,-67.7600021362305
2.877,12.9100008010864
2.887,23.1000003814697
2.897,16.2700004577637
2.907,-8.96000003814697
2.917,-0.310000002384186
2.927,-60.3000030517578
2.937,-38.0100021362305
2.947,41.8600006103516
2.957,28.2100009918213
2.967,16.6200008392334
2.977,20.8200016021729
2.987,17.6700000762939
2.997,-54.6300010681152
3.007,-21.0700016021729
3.017,69.1900024414062
3.027,29.6800022125244
3.036,-36.1900024414062
3.046,49.1700019836426
3.056,93.7600021362305
3.066,-17.5
3.076,34.4400024414062
3.086,36.2200012207031
3.096,3.67000007629395
3.106,-8.32999992370605
3.116,-16.8000011444092
3.126,-72.2000045776367
3.136,-52.2500038146973
3.146,22.2200012207031
3.156,-3.81000018119812
3.166,-10.1100006103516
3.176,-15.5400009155273
3.186,-4.44000005722046
3.196,-43.8900032043457
3.206,7.63000059127808
3.216,22.3600006103516
3.226,12.9100008010864
3.237,13.3700008392334
3.247,19.2100009918213
3.257,14.6600008010864
3.267,-12.8100004196167
3.277,18.6900005340576
3.287,38.4600028991699
3.297,-41.1600036621094
3.307,1.71000003814697
3.317,52.430004119873
3.327,22.2600002288818
3.337,-3.29000020027161
3.347,-32.7600021362305
3.357,-14.2400007247925
3.367,13.5100002288818
3.377,-53.8300018310547
3.387,-15.6800003051758
3.397,40.1100006103516
3.407,36.2900009155273
3.417,13.3300008773804
3.427,10.9900007247925
3.431,-15.2600011825562
3.441,47.9500007629395
3.451,10.9900007247925
3.461,-52.1500015258789
3.471,36.2200012207031
3.481,56.7000045776367
3.491,-12.3900003433228
3.501,31.0100021362305
3.511,-15.5700006484985
3.521,-81.370002746582
3.531,0.140000000596046
3.541,63.4900016784668
3.551,23.5200004577637
3.561,-1.71000003814697
3.571,66.7100067138672
3.581,13.7500009536743
3.591,-70.0300064086914
3.601,33.9500007629395
3.624,29.9600009918213
3.634,0.800000011920929
3.644,9.45000076293945
3.654,23.9700012207031
3.664,-22.9200019836426
3.674,-16.5500011444092
3.684,39.4400024414062
3.694,16.8700008392334
3.704,7.03000020980835
3.714,-8.99000072479248
3.724,33.6700019836426
3.734,-43.0100021362305
3.744,-6.54000043869019
3.754,33.1800003051758
3.764,-17.7800006866455
3.774,6.16000032424927
3.784,16.8299999237061
3.794,27.230001449585
3.804,-25.7600021362305
3.814,61.8400039672852
3.827,20.7500019073486
3.837,-2.34000015258789
3.847,-6.30000019073486
3.857,-10.8100004196167
3.867,-58.4500045776367
3.877,14.6300010681152
3.887,58.8300018310547
3.897,-33.6000022888184
3.907,4.90000009536743
3.917,34.120002746582
3.927,53.2700042724609
3.937,-2.27000021934509
3.947,42.0300025939941
3.957,88.0900039672852
3.967,-30.5200023651123
3.977,32.2700004577637
3.987,52.430004119873
3.997,1.89000010490417
4.007,19.2800006866455
4.017,68.4600067138672
4.027,21.2800006866455
4.037,29.4700012207031
4.047,-62.3000030517578
4.057,18.6500015258789
4.067,70.7000045776367
4.077,9.3100004196167
4.087,-29.9200019836426
4.097,2.76000022888184
4.107,-59.6700019836426
4.117,-11.3400001525879
4.127,24.0800018310547
4.137,4.76000022888184
4.147,10.5300006866455
4.157,-6.65000009536743
4.167,-50.0100021362305
4.176,1.22000002861023
4.186,28.6300010681152
4.196,-14.9400005340576
4.206,16.9000015258789
4.216,-7.45000028610229
4.226,-50.5700035095215
4.236,-42.8400001525879
4.246,25.5500011444092
4.256,36.6100006103516
4.266,26.6000003814697
4.276,-1.96000003814697
4.286,2.87000012397766
4.296,-28.0700016021729
4.306,38.1500015258789
4.316,6.12000036239624
4.326,23.8700008392334
4.336,10.1500005722046
4.346,6.82000017166138
4.356,-31.4300022125244
4.366,59.2200012207031
4.374,38.3900032043457
4.384,28.310001373291
4.394,25.3400020599365
4.404,6.19000005722046
4.414,-32.3400001525879
4.424,39.5500030517578
4.434,26.4900016784668
4.444,25.230001449585
4.454,1.75000011920929
4.464,-36.2200012207031
4.474,-89.5600051879883
4.484,-0.590000033378601
4.494,10.5000009536743
4.504,22.8900012969971
4.514,14.4500007629395
4.524,5.21000003814697
4.534,-42.0300025939941
4.544,6.44000053405762
4.554,11.6900005340576
4.564,-4.20000028610229
4.576,7.59000015258789
4.586,4.8600001335144
4.596,-38.5300025939941
4.606,-26.4600009918213
4.616,36.7800025939941
4.626,32.2300033569336
4.636,2.69000005722046
4.646,15.0500011444092
4.656,10.0400009155273
4.666,-57.9600028991699
4.676,-16.2400016784668
4.686,15.9200010299683
4.696,10.2200002670288
4.706,0.140000000596046
4.716,20.7900009155273
4.726,-34.75
4.736,-38.5
4.746,9.27000045776367
4.756,-32.7900009155273
4.766,-18.8300018310547
4.772,5.74000024795532
4.782,-17.6000003814697
4.792,-6.05000019073486
4.802,-24.9200019836426
4.812,-72.0600051879883
4.822,-12.7700004577637
4.832,-14.6300010681152
4.842,0.490000009536743
4.852,-9.34000015258789
4.862,4.34000015258789
4.872,-43.3300018310547
4.882,10.1500005722046
4.892,-14.3800010681152
4.902,-5.88000011444092
4.912,8.92000007629395
4.922,-0.0300000011920929
4.928,-34.0200004577637
4.938,17.2900009155273
4.948,-16.4500007629395
4.958,-28.4500007629395
4.968,5.1100001335144
4.978,-1.47000002861023
4.988,-9.66000080108643
4.998,28.4900016784668
5.008,76.1900024414062
5.018,64.0100021362305
5.028,43.6100006103516
5.038,97.5100021362305
5.048,53.370002746582
5.058,64.1900024414062
5.068,76.4400024414062
5.078,45.6000022888184
5.088,79.6600036621094
5.098,67.0600051879883
5.108,23.4100017547607
5.118,42.2800025939941
5.127,72.4100036621094
5.137,24.2500019073486
5.147,16.7600002288818
5.157,79.1700057983398
5.167,-5.91000032424927
5.177,-7.63000059127808
5.187,75.8800048828125
5.197,-0.100000001490116
5.207,22.2600002288818
5.217,66.8100051879883
5.227,58.9700012207031
5.237,-18.7600002288818
5.247,39.5100021362305
5.257,87.2500076293945
5.267,-0.240000009536743
5.277,58.3400039672852
5.287,33.810001373291
5.297,13.9300003051758
5.307,15.2600011825562
5.317,-91.3500061035156
5.457,-35.5200004577637
5.467,10.7400007247925
5.477,-59.0400009155273
5.487,7.28000020980835
5.497,-5.18000030517578
5.507,-55.680004119873
5.517,-53.0200042724609
5.527,-31.6400012969971
5.537,-73.8500061035156
5.547,-69.75
5.557,-63.0700035095215
5.567,-61.2100028991699
5.577,-38.8500022888184
5.587,-48.4000015258789
5.597,4.13000011444092
5.607,-20.0900001525879
5.617,-58.5200042724609
5.627,-1.54000008106232
5.637,-49.2800025939941
5.647,-25.5500011444092
5.651,-42.6300010681152
5.661,3.3600001335144
5.671,-30.0300006866455
5.681,-28.2400016784668
5.691,-9.24000072479248
5.701,-21.4900016784668
5.711,-22.5000019073486
5.721,-11.5800008773804
5.731,-47.9100036621094
5.741,-1.71000003814697
5.751,21.1000003814697
5.761,-7.24000024795532
5.771,21.6300010681152
5.781,-16.060001373291
5.791,-8.05000019073486
5.801,32.0200004577637
5.809,47.2500038146973
5.819,55.8200035095215
5.829,39.7600021362305
5.839,-18.7600002288818
5.849,24.8500003814697
5.859,9.48000049591064
5.869,-28.0000019073486
5.879,2.66000008583069
5.889,-19.7000007629395
5.899,-2.73000001907349
5.909,39.9000015258789
5.919,-20.6100006103516
5.929,5.88000011444092
5.939,-0.140000000596046
5.949,-36.4700012207031
5.959,54.1400032043457
5.969,9.8700008392334
5.979,1.89000010490417
5.989,28.2800006866455
5.999,-15.7500009536743
6.008,47.9100036621094
6.018,-12.6300010681152
6.028,-23.5900020599365
6.038,29.9900016784668
6.048,-24.9200019836426
6.058,13.0200004577637
6.068,-20.0200004577637
6.078,-26.4900016784668
6.088,14.9100008010864
6.098,-36.4000015258789
6.108,-9.69000053405762
6.118,-21.9400005340576
6.128,-13.6800003051758
6.138,45.7400016784668
6.148,-20.3000011444092
6.158,41.8200035095215
6.168,19.3200016021729
6.178,-27.6800022125244
6.188,35.3500022888184
6.198,-25.6900005340576
6.207,9.66000080108643
6.217,14.2400007247925
6.227,-9.48000049591064
6.237,28.9400005340576
6.247,-30.6200008392334
6.257,15.7100009918213
6.267,20.3300018310547
6.277,6.82000017166138
6.287,62.7900047302246
6.297,1.50000011920929
6.307,56.6600036621094
6.317,13.2600002288818
6.327,-27.1900005340576
6.337,24.1500015258789
6.347,-23.2000007629395
6.357,-12.1800003051758
6.367,-36.2200012207031
6.377,-53.3400039672852
6.387,-24.2500019073486
6.397,-79.8300018310547
6.401,-50.2900009155273
6.411,32.6900024414062
6.421,-65.6900024414062
6.431,-55.9600028991699
6.441,-57.0500030517578
6.451,-54.4200019836426
6.461,-60.2300033569336
6.471,-83.4000015258789
6.481,44.310001373291
6.491,34.4000015258789
6.501,52.6000022888184
6.511,43.9900016784668
6.521,12.2100009918213
6.531,46.5800018310547
6.541,38.810001373291
6.551,79.0600051879883
6.559,12.9800004959106
6.569,-58.620002746582
6.579,14.5600004196167
6.589,19.3500003814697
6.599,23.310001373291
6.609,26.980001449585
6.619,31.0400009155273
6.629,75.0400009155273
6.639,-5.98000049591064
6.649,11.0600004196167
6.659,19.7000007629395
6.669,26.6000003814697
6.679,22.3300018310547
6.689,25.7900009155273
6.699,22.7800006866455
6.709,3.88000011444092
6.719,-15.5400009155273
6.729,-4.97000026702881
6.739,-20.7200012207031
6.749,-17.6700000762939
6.758,-11.4100008010864
6.768,-16.6200008392334
6.778,28.4500007629395
6.788,-44.5200004577637
6.798,11.7900009155273
6.808,22.1200008392334
6.818,33.9099998474121
6.828,40.8800010681152
6.838,48.9600028991699
6.848,91.3100051879883
6.858,36.5700035095215
6.868,-18.0200004577637
6.878,-14.1000003814697
6.888,-19.6000003814697
6.898,5.77000045776367
6.908,-9.66000080108643
6.918,-18.060001373291
6.928,17.7400016784668
6.938,-28.2400016784668
6.948,1.50000011920929
6.957,-9.48000049591064
6.967,3.1100001335144
6.977,8.32999992370605
6.987,-24.9200019836426
6.997,8.5
7.007,3.81000018119812
7.017,3.92000007629395
7.027,15.6400003433228
7.037,-33.3500022888184
7.047,-6.44000053405762
7.057,-7.77000045776367
7.067,-0.310000002384186
7.077,9.80000019073486
7.087,-21.730001449585
7.097,8.99000072479248
7.107,-36.5
7.117,-32.3400001525879
7.127,-29.4000015258789
7.137,-33.25
7.147,32.3400001525879
7.152,25.9000015258789
7.162,-3.92000007629395
7.172,-6.79000043869019
7.182,-18.1600017547607
7.192,-6.82000017166138
7.202,38.9200019836426
7.212,-25.7600021362305
7.222,-30.0300006866455
7.232,-22.3300018310547
7.242,-15.7100009918213
7.252,0.310000002384186
7.262,-15.3300008773804
7.272,34.6500015258789
7.282,-11.2000007629395
7.292,-29.0800018310547
7.302,20.5800018310547
7.309,19.8800010681152
7.319,46.6900024414062
7.329,28.8700008392334
7.339,29.8900012969971
7.349,17.3200016021729
7.359,-52.7400016784668
7.369,-33.6300010681152
7.379,-4.65000009536743
7.389,-6.6100001335144
7.399,-22.3300018310547
7.409,-32.5800018310547
7.419,39.620002746582
7.429,-57.5400009155273
7.439,-0.840000033378601
7.449,23.5500011444092
7.459,0.280000001192093
7.469,5.63000011444092
7.479,5.60000038146973
7.489,29.1200008392334
7.499,-45.0800018310547
7.508,-61.9800033569336
7.518,-66.3199996948242
7.528,-68.3500061035156
7.538,-25.5800018310547
7.548,-10.5700006484985
7.558,0.450000017881393
7.568,20.5400009155273
7.578,-28.4500007629395
7.588,-65.5200042724609
7.598,-133.139999389648
7.608,-113.120002746582
7.618,-81.1600036621094
7.628,-134.330001831055
7.638,-80.9900054931641
7.648,-76.0200042724609
7.658,-47.4200019836426
7.668,-22.4000015258789
7.678,27.4000015258789
7.688,114.060005187988
7.698,99.9200057983398
7.707,134.889999389648
7.717,66.3199996948242
7.727,-11.9000005722046
7.737,-15.6100006103516
7.747,-19.0700016021729
7.757,-24.6700019836426
7.767,-18.5100002288818
7.777,-19.9100017547607
7.787,16.2400016784668
7.797,-38.6000022888184
7.807,17.2200012207031
7.817,44.310001373291
7.827,48.2600021362305
7.837,67.7900009155273
7.847,43.0500030517578
7.857,73.8500061035156
7.867,-4.83000040054321
7.877,-28.4500007629395
7.887,18.9000015258789
7.897,39.5100021362305
7.901,83.5400009155273
7.911,77.0300064086914
7.921,82.2800064086914
7.931,99.7100067138672
7.941,104.230003356934
7.951,33.560001373291
7.961,1.00999999046326
7.971,25.0200004577637
7.981,23.480001449585
7.991,22.2900009155273
8.001,35.1700019836426
8.011,51.1000022888184
8.021,47.6300010681152
8.031,36.75
8.041,33.0400009155273
8.051,16.2700004577637
8.059,17.3900012969971
8.069,24.9200019836426
8.079,37.4800033569336
8.089,37.2700004577637
8.099,39.4400024414062
8.109,51.0300025939941
8.119,25.2000007629395
8.129,7.70000028610229
8.139,-3.01000022888184
8.149,-14.5600004196167
8.159,-12.6300010681152
8.169,-10.2200002670288
8.179,1.05000007152557
8.189,11.7900009155273
8.199,18.9300003051758
8.209,13.2300004959106
8.219,9.20000076293945
8.229,3.1800000667572
8.239,-0.100000001490116
8.249,-30.310001373291
8.258,-40.810001373291
8.268,-42.7700004577637
8.278,-52.3600006103516
8.288,-38.8500022888184
8.298,-40.9100036621094
8.308,-23.0300006866455
8.318,-14.9100008010864
8.328,-31.5000019073486
8.338,27.8600006103516
8.348,-48.9600028991699
8.358,-17.3200016021729
8.368,7.84000015258789
8.378,-17.6400012969971
8.388,-22.9900016784668
8.398,-22.0800018310547
8.408,-23.3800010681152
8.418,-37.4500007629395
8.428,-67.4400024414062
8.438,-60.4100036621094
8.448,-70.5200042724609
8.453,-70.8000030517578
8.463,-61.7700042724609
8.473,-42.3500022888184
8.483,-64.8199996948242
8.493,-110.140007019043
8.503,-90.120002746582
8.513,-78.8200073242188
8.523,-69.4400024414062
8.533,-49.2400016784668
8.543,-45.810001373291
8.553,-47.6000022888184
8.563,-32.9300003051758
8.573,-42.5900001525879
8.583,-12.7700004577637
8.593,-73.9500045776367
8.603,-79.870002746582
8.61,-41.9300003051758
8.62,-39.060001373291
8.63,-21.8400001525879
8.64,5.04000043869019
8.65,11.8600006103516
8.66,53.060001373291
8.67,2.24000000953674
8.68,0.800000011920929
8.69,6.26000022888184
8.7,-15.4000005722046
8.71,-4.72000026702881
8.72,-11.1300001144409
8.73,-17.25
8.74,3.3600001335144
8.75,-14.4900007247925
8.76,-2.76000022888184
8.77,19.2800006866455
8.78,19.4200000762939
8.79,37.4100036621094
8.8,21.730001449585
8.809,-9.3100004196167
8.819,18.7200012207031
8.829,21.6300010681152
8.839,2.06000018119812
8.849,21.980001449585
8.859,16.5500011444092
8.869,25.2700004577637
8.879,22.8200016021729
8.889,-13.3700008392334
8.899,-13.1600008010864
8.909,-14.2100009918213
8.919,-22.0500011444092
8.929,-16.0300006866455
8.939,-15.9600009918213
8.949,-14.2400007247925
8.959,9.20000076293945
8.969,-63.3500022888184
8.979,-55.3000030517578
8.989,-30.3800010681152
8.999,-41.2600021362305
9.008,-33.6000022888184
9.018,-24.7800006866455
9.028,-28.6300010681152
9.038,10.6700000762939
9.048,-23.6200008392334
9.058,-39.7600021362305
9.068,-14.8000011444092
9.078,-24.1800003051758
9.088,-19.6000003814697
9.098,-6.82000017166138
9.108,-1.08000004291534
9.118,37.7300033569336
9.128,0.240000009536743
9.138,-24.0400009155273
9.148,-3.1100001335144
9.158,-23.730001449585
9.168,-21.3500003814697
9.178,-18.6200008392334
9.188,-73.4300003051758
9.198,-50.2200012207031
9.203,-57.5000038146973
9.213,-38.8800010681152
9.223,-44.1700019836426
9.233,-25.6200008392334
9.243,-39.7900009155273
9.253,-45.5700035095215
9.263,-27.3300018310547
9.273,-37.620002746582
9.283,-53.4400024414062
9.293,-51.4800033569336
9.303,-56.1400032043457
9.313,-36.4300003051758
9.323,-64.6399993896484
9.333,-79.3800048828125
9.343,-67.4400024414062
9.353,-75.1800003051758
9.36,-51.4100036621094
9.37,-22.8900012969971
9.38,-18.0900001525879
9.39,12.1800003051758
9.4,19.8800010681152
9.41,6.30000019073486
9.42,6.93000030517578
9.43,-13.8200006484985
9.44,-18.0200004577637
9.45,-22.5400009155273
9.46,-28.730001449585
9.47,-12.0700006484985
9.48,-7.00000047683716
9.49,-7.07000017166138
9.5,16.5500011444092
9.51,5.60000038146973
9.52,5.84000015258789
9.53,15.9600009918213
9.54,15.6100006103516
9.55,16.8299999237061
9.559,-10.8500003814697
9.569,-27.3300018310547
9.579,-14.3500003814697
9.589,-17.25
9.599,-11.9700002670288
9.609,-8.78000068664551
9.619,-33.2800025939941
9.629,-13.3000001907349
9.639,-0.520000040531158
9.649,-3.78000020980835
9.659,12.1800003051758
9.669,-29.4700012207031
9.679,-22.2200012207031
9.689,-24.9500007629395
9.699,-30.1700019836426
9.709,-11.4400005340576
9.719,-40.3900032043457
9.729,-32.9300003051758
9.739,-1.40000009536743
9.749,8.71000003814697
9.758,24.4300003051758
9.768,11.7600002288818
9.778,7.10000038146973
9.788,16.3800010681152
9.798,-2.13000011444092
9.808,12.0400009155273
9.818,0.380000025033951
9.828,-29.1900005340576
9.838,8.5
9.848,19.2800006866455
9.858,39.8600006103516
9.868,59.7100028991699
9.878,31.1500015258789
9.888,83.3000030517578
9.898,58.2000045776367
9.908,33.560001373291
9.918,39.6900024414062
9.928,-18.2000007629395
9.938,10.8500003814697
9.948,-21.8700008392334
9.953,-10.8500003814697
9.963,-38.6700019836426
9.973,0.660000026226044
9.983,-0.21000000834465
9.993,13.6500005722046
10.003,35.0300025939941
10.013,-6.05000019073486
10.023,3.3600001335144
10.033,14.0700006484985
10.043,13.7900009155273
10.053,32.7200012207031
10.063,-26.0400009155273
10.073,-7.98000049591064
10.083,10.1800003051758
10.093,7.84000015258789
10.103,41.0200004577637
10.11,-18.9300003051758
10.12,-1.26000010967255
10.13,6.96000051498413
10.14,11.0200004577637
10.15,18.7600002288818
10.16,-38.3600006103516
10.17,-27.1200008392334
10.18,-30.2700023651123
10.19,-29.5700016021729
10.2,-22.6400012969971
10.21,-86.3400039672852
10.22,-69.6100006103516
10.23,-40.3900032043457
10.24,-33.6300010681152
10.25,-7.03000020980835
10.26,-39.370002746582
10.27,-14.2800006866455
10.28,5.5600004196167
10.29,22.1900005340576
10.3,35.870002746582
10.309,-12.8400001525879
10.319,6.6100001335144
10.329,11.5500001907349
10.339,16.9700012207031
10.349,18.6900005340576
10.359,-44.9700012207031
10.369,-16.7600002288818
10.379,-3.1100001335144
10.389,1.96000003814697
10.399,12.5300006866455
10.409,-31.3600006103516
10.419,3.78000020980835
10.429,1.92000007629395
10.439,20.6500015258789
10.449,22.9600009918213
10.459,-25.5100021362305
10.469,10.3200006484985
10.479,31.9200019836426
10.489,50.0500030517578
10.499,49.6300010681152
10.508,-3.32000017166138
10.518,53.5500030517578
10.528,89.3500061035156
10.538,94.1100082397461
10.548,94.2900009155273
10.558,28.0000019073486
10.568,68.6300048828125
10.578,99.4000015258789
10.588,68.8100051879883
10.598,48.5400009155273
10.608,-18.6900005340576
10.618,44.4500007629395
10.628,46.4400024414062
10.638,52.0100021362305
10.648,33.8800010681152
10.658,-7.49000024795532
10.668,48.6100006103516
10.678,57.0800018310547
10.688,16.8700008392334
10.698,16.6900005340576
10.703,27.1200008392334
10.713,-5.49000024795532
10.723,63.7000045776367
10.733,67.5800018310547
10.743,72.9700012207031
10.753,39.0900001525879
10.763,7.10000038146973
10.773,65.3800048828125
10.783,56.2800025939941
10.793,58.5500030517578
10.803,37.1300010681152
10.813,-4.41000032424927
10.823,44.4500007629395
10.833,10.1800003051758
10.843,2.03000020980835
10.853,20.2600002288818
10.86,-7.63000059127808
10.87,1.6800000667572
10.88,-54.2500038146973
10.89,2.03000020980835
10.9,-3.39000010490417
10.91,50.8900032043457
10.92,31.8500022888184
10.93,-15.1200008392334
10.94,32.6500015258789
10.95,-26.2500019073486
10.96,21.1400012969971
10.97,-38.4300003051758
10.98,-0.800000011920929
10.99,11.5500001907349
11,-9.6200008392334
11.01,17.3200016021729
11.02,-5.21000003814697
11.03,43.8200035095215
11.04,-15.2600011825562
11.05,30.9700012207031
11.059,12.4600009918213
11.069,20.3700008392334
11.079,-2.83000016212463
11.089,-10.460000038147
11.099,4.16000032424927
11.109,-13.4000005722046
11.119,38.1800003051758
11.129,-1.08000004291534
11.139,52.5300025939941
11.149,8.1200008392334
11.159,40.7400016784668
11.169,17.25
11.179,21.2100009918213
11.189,18.9300003051758
11.199,-1.99000012874603
11.209,-0.630000054836273
11.219,-7.4200005531311
11.229,27.1900005340576
11.239,-24.5000019073486
11.249,23.060001373291
11.258,-12.7400007247925
11.268,21.1400012969971
11.278,-9.41000080108643
11.288,8.89000034332275
11.298,20.9600009918213
11.308,21.2100009918213
11.318,-2.90000009536743
11.328,19.4900016784668
11.338,69.1900024414062
11.348,31.8500022888184
11.358,0.660000026226044
11.368,-22.4300003051758
11.378,20.4700012207031
11.388,-8.53999996185303
11.398,7.59000015258789
11.408,12.1400003433228
11.418,34.6100006103516
11.428,14.2100009918213
11.438,49.1400032043457
11.448,37.620002746582
11.453,12.5300006866455
11.463,28.0000019073486
11.473,30.9400005340576
11.483,18.5100002288818
11.493,-9.66000080108643
11.503,-1.99000012874603
11.513,-7.07000017166138
11.523,-6.96000051498413
11.533,-67.8600006103516
11.543,-11.6900005340576
11.553,-0.140000000596046
11.563,-15.0100011825562
11.573,-15.2900009155273
11.583,8.85000038146973
11.593,-12.2800006866455
11.603,-26.2100009918213
11.61,-24.4600009918213
11.62,-13.6500005722046
11.63,-22.9200019836426
11.64,-18.5800018310547
11.65,-5.35000038146973
11.66,-3.92000007629395
11.67,-14.9400005340576
11.68,-19.1400012969971
11.69,-27.4700012207031
11.7,-3.3600001335144
11.71,12.2100009918213
11.72,-11.5100002288818
11.73,15.6400003433228
11.74,13.9600009918213
11.75,20.0900001525879
11.76,4.16000032424927
11.77,34.2300033569336
11.78,46.2300033569336
11.79,51.5900039672852
11.8,44.7300033569336
11.809,38.7800025939941
11.819,36.5700035095215
11.829,44.5500030517578
11.839,27.8900012969971
11.849,1.89000010490417
11.859,-3.57000017166138
11.869,35.2800025939941
11.879,22.7500019073486
11.889,28.0300006866455
11.899,3.88000011444092
11.909,30.9700012207031
11.919,34.75
11.929,31.810001373291
11.939,0
11.949,15.6100006103516
11.959,28.8000011444092
11.969,42.2100028991699
11.979,23.3800010681152
11.989,37.1700019836426
11.999,46.1600036621094
12.008,45.6700019836426
12.018,19.7700004577637
12.028,44.620002746582
12.038,73.7100067138672
12.048,58.5500030517578
12.058,22.6800003051758
12.068,37.6900024414062
12.078,47.6700019836426
12.088,22.5400009155273
12.098,6.58000040054321
12.108,27.0200004577637
12.118,34.75
12.128,8.53999996185303
12.138,-2.06000018119812
12.148,31.0400009155273
12.158,48.9600028991699
12.168,-8.01000022888184
12.178,-17.3900012969971
12.188,19.6300010681152
12.198,40.4600028991699
12.203,-52.7800025939941
12.213,-13.3700008392334
12.223,33.4600028991699
12.233,34.7900009155273
12.243,-43.9600028991699
12.253,-22.8500003814697
12.263,9.03000068664551
12.273,4.97000026702881
12.283,-53.620002746582
12.293,5.18000030517578
12.303,11.9700002670288
12.313,-11.1300001144409
12.323,-40.6700019836426
12.333,-5
12.343,19.3900012969971
12.353,-22.2900009155273
12.36,-42.0300025939941
12.37,-19.4900016784668
12.38,-11.3700008392334
12.39,-43.0100021362305
12.4,-6.02000045776367
12.41,12.3900003433228
12.42,22.9200019836426
12.43,49.310001373291
12.44,24.4300003051758
12.45,20.5800018310547
12.46,-1.33000004291534
12.47,5.18000030517578
12.48,13.6100006103516
12.49,-8.61000061035156
12.5,37.620002746582
12.51,27.1600017547607
12.52,17.3900012969971
12.53,25.0900020599365
12.54,10.9500007629395
12.55,-33.7700004577637
12.559,9.69000053405762
12.569,29.9600009918213
12.579,1.15000009536743
12.589,-34.0200004577637
12.599,-1.89000010490417
12.609,11.3000001907349
12.619,-31.9200019836426
12.629,0.840000033378601
12.639,13.2300004959106
12.649,-5.5600004196167
12.659,-13.2300004959106
12.669,-15.5000009536743
12.679,-2.59000015258789
12.689,-21.4200000762939
12.699,-31.0100021362305
12.709,5.32000017166138
12.719,-3.39000010490417
12.729,9.24000072479248
12.739,19.6000003814697
12.749,1.75000011920929
12.757,4.65000009536743
12.767,8.99000072479248
12.777,13.6100006103516
12.787,-0.630000054836273
12.797,-4.62000036239624
12.807,2.66000008583069
12.817,5.18000030517578
12.827,12.9800004959106
12.837,-2.97000002861023
12.847,-25.3000011444092
12.857,2.62000012397766
12.867,-25.2700004577637
12.877,4.72000026702881
12.887,-13.8900003433228
12.897,-18.7600002288818
12.907,-5.35000038146973
12.917,15.2900009155273
12.927,45.0100021362305
12.937,30.4500007629395
12.947,7.52000045776367
12.952,-10.8800001144409
12.962,13.5400009155273
12.972,5.1100001335144
12.982,7.28000020980835
12.992,6.09000015258789
13.002,26.3900012969971
13.012,6.51000022888184
13.022,-3.88000011444092
13.032,-29.5000019073486
13.042,-55.2600021362305
13.052,-5.21000003814697
13.062,-29.3600006103516
13.072,-20.2600002288818
13.082,-5.07000017166138
13.092,-7.07000017166138
13.102,-31.7100009918213
13.11,31.2200012207031
13.12,6.02000045776367
13.13,21.0700016021729
13.14,15.8200006484985
13.15,4.62000036239624
13.16,23.060001373291
13.17,-4.65000009536743
13.18,3.01000022888184
13.19,8.82000064849854
13.2,24.7100009918213
13.21,-1.64000010490417
13.22,2.87000012397766
13.23,9.73000049591064
13.24,11.7900009155273
13.25,6.54000043869019
13.26,29.5000019073486
13.27,5.18000030517578
13.28,-1.22000002861023
13.29,4.97000026702881
13.3,12.4600009918213
13.309,17.3200016021729
13.319,-13.8600006103516
13.329,-7.14000034332275
13.339,-15.0100011825562
13.349,26.4200019836426
13.359,22.1500015258789
13.369,21.1000003814697
13.379,31.7400016784668
13.389,35.7000007629395
13.399,18.1300010681152
13.409,1.71000003814697
13.419,11.6500005722046
13.429,-8.19000053405762
13.439,7.4200005531311
13.449,48.1600036621094
13.459,24.2500019073486
13.469,-5.25000047683716
13.479,20.2600002288818
13.489,3.29000020027161
13.499,-19.4900016784668
13.507,-9.97000026702881
13.517,22.0800018310547
13.527,-2.34000015258789
13.537,-9.8700008392334
13.547,31.4600009918213
13.557,0.660000026226044
13.567,-10.5700006484985
13.577,8.61000061035156
13.587,9.24000072479248
13.597,-3.32000017166138
13.607,-4.0600004196167
13.617,36.8500022888184
13.627,11.0900001525879
13.637,13.3000001907349
13.647,-8.85000038146973
13.657,7.63000059127808
13.667,5.32000017166138
13.677,-15.7800006866455
13.687,-35.9800033569336
13.697,-28.0300006866455
13.701,-6.37000036239624
13.711,6.05000019073486
13.721,32.2300033569336
13.731,35
13.741,15.0500011444092
13.751,4.8600001335144
13.761,2.38000011444092
13.771,12.9100008010864
13.781,-18.1600017547607
13.791,-5.39000034332275
13.801,-23.5200004577637
13.811,-18.060001373291
13.821,-0.170000001788139
13.831,-4.8600001335144
13.841,8.22000026702881
13.851,-9.83000087738037
13.86,-4.34000015258789
13.87,-21.7000007629395
13.88,0.140000000596046
13.89,1.54000008106232
13.9,-4.20000028610229
13.91,35.9800033569336
13.92,24.0800018310547
13.93,53.8300018310547
13.94,21.1000003814697
13.95,21.9100017547607
13.96,43.9200019836426
13.97,25.1600017547607
13.98,28.4900016784668
13.99,-9.03000068664551
14,-1.29000008106232
14.01,-6.23000049591064
14.02,16.8299999237061
14.03,1.6800000667572
14.04,-5.70000028610229
14.05,10.7800006866455
14.059,-19.1800003051758
14.069,-13.4700002670288
14.079,-6.79000043869019
14.089,3.1100001335144
14.099,9.17000007629395
14.109,9.69000053405762
14.119,11.3700008392334
14.129,12.7000007629395
14.139,13.5800008773804
14.149,-1.71000003814697
14.159,-13.6800003051758
14.169,3.50000023841858
14.179,-5.98000049591064
14.189,13.0500001907349
14.199,-7.52000045776367
14.209,-4.44000005722046
14.219,-7.35000038146973
14.229,13.5800008773804
14.239,2.94000005722046
14.249,-5.32000017166138
14.257,14.6300010681152
14.267,22.9900016784668
14.277,58.8300018310547
14.287,32.370002746582
14.297,27.6500015258789
14.307,31.2900009155273
14.317,28.1700019836426
14.327,30.3800010681152
14.337,42.6300010681152
14.347,29.7100009918213
14.357,6.33000040054321
14.367,7.77000045776367
14.377,-16.5200004577637
14.387,-0.770000040531158
14.397,3.92000007629395
14.407,-21.1700000762939
14.417,37.9400024414062
14.427,30.3800010681152
14.437,53.4800033569336
14.447,52.180004119873
14.451,42.9400024414062
14.461,-10.0800008773804
14.471,43.9200019836426
14.481,76.75
14.491,65.9400024414062
14.501,65.8300018310547
14.511,17.0799999237061
14.521,79.5500030517578
14.531,63.310001373291
14.541,50.0800018310547
14.551,53.5500030517578
14.561,11.0600004196167
14.571,64.0500030517578
14.581,93.870002746582
14.591,81.7900009155273
14.601,65.4500045776367
14.61,43.4000015258789
14.62,75.1800003051758
14.63,31.7400016784668
14.64,61.560001373291
14.65,60.4100036621094
14.66,40.2500038146973
14.67,45.2500038146973
14.68,19.4200000762939
14.69,55.0200042724609
14.7,56.9400024414062
14.71,33.3500022888184
14.72,35.1700019836426
14.73,-7.98000049591064
14.74,9.48000049591064
14.75,18.5500011444092
14.76,-1.19000005722046
14.77,-8.43000030517578
14.78,-59.6000022888184
14.79,-26.9100017547607
14.8,-5.77000045776367
14.809,-15.8900003433228
14.819,-41.0200004577637
14.829,-79.4100036621094
14.839,-15.4700002670288
14.849,15.2600011825562
14.859,2.66000008583069
14.869,-44.9700012207031
14.879,4.48000001907349
14.889,43.0500030517578
14.899,-15.8200006484985
14.909,-3.39000010490417
14.919,14.2100009918213
14.929,-21.4900016784668
14.939,-40.7400016784668
14.949,-19.9100017547607
14.959,-15.6400003433228
14.969,-75.3200073242188
14.979,-53.8300018310547
14.989,-6.37000036239624
14.999,-54.6300010681152
15.007,-35.7700004577637
15.017,15.5400009155273
15.027,16.9700012207031
15.037,-6.44000053405762
15.047,21.7700004577637
15.057,55.370002746582
15.067,30.9000015258789
15.077,29.6400012969971
15.087,77.2400054931641
15.097,65.0300064086914
15.107,22.4300003051758
15.117,11.1300001144409
15.127,47.560001373291
15.137,55.7200012207031
15.147,61.9100036621094
15.157,1.89000010490417
15.167,41.6800003051758
15.177,15.7100009918213
15.187,30.1000022888184
15.197,47.8800010681152
15.201,12.1100006103516
15.211,-61.6000022888184
15.221,-26.2500019073486
15.231,10.5000009536743
15.241,67.2700042724609
15.251,54.5300025939941
15.261,20.3000011444092
15.271,52.6000022888184
15.281,95.7600021362305
15.291,95.0900039672852
15.301,98.1000061035156
15.311,61.7400016784668
15.321,-21.0000019073486
15.331,-57.9600028991699
15.341,-98.2400054931641
15.351,-83.2300033569336
15.36,-52.7100028991699
15.37,-121.380004882812
15.38,-63.8400039672852
15.39,23.3800010681152
15.4,-16.7600002288818
15.41,2.34000015258789
15.42,34.1900024414062
15.43,68.8800048828125
15.44,29.1500015258789
15.45,13.4000005722046
15.46,7.94000053405762
15.47,49.6300010681152
15.48,51.3800010681152
15.49,-37.4800033569336
15.5,-21.6300010681152
15.51,1.19000005722046
15.52,48.8900032043457
15.53,14.9100008010864
15.54,-39.2000007629395
15.55,2.90000009536743
15.559,-7.21000051498413
15.569,-59.3900032043457
15.579,-29.2600021362305
15.589,-21.1700000762939
15.599,-66.8100051879883
15.609,-54.810001373291
15.619,-14.7000007629395
15.629,-18.8600006103516
15.639,-79.2000045776367
15.649,-25.5800018310547
15.659,-14.5600004196167
15.669,-10.2500009536743
15.679,-35.7300033569336
15.689,-62.7900047302246
15.699,-60.2000045776367
15.709,-44.3400039672852
15.719,-22.5400009155273
15.729,-56.2100028991699
15.739,-37.3400001525879
15.749,-10.5300006866455
15.757,-8.53999996185303
15.767,-19.8800010681152
15.777,-2.76000022888184
15.787,0.870000064373016
15.797,-23.6200008392334
15.807,-3.95000028610229
15.817,-20.4700012207031
15.827,-34.75
15.837,-38.1100006103516
15.847,-42.9400024414062
15.857,-3.39000010490417
15.867,-53.6500015258789
15.877,-39.0200004577637
15.887,25.1600017547607
15.897,-2.20000004768372
15.907,-38.3200035095215
15.917,-37.8300018310547
15.927,29.7500019073486
15.937,-0.770000040531158
15.947,-28.3800010681152
15.952,-41.7200012207031
15.962,-40.2100028991699
15.972,-56.2400016784668
15.982,-20.4000015258789
15.992,-22.1200008392334
16.002,-60.8600044250488
16.012,-39.4800033569336
16.022,-25.3000011444092
16.032,-34.2300033569336
16.042,-33.8800010681152
16.052,-51.3400039672852
16.062,-18.060001373291
16.072,-74.4100036621094
16.082,-26.4900016784668
16.092,-6.09000015258789
16.102,-17.1800003051758
16.11,-21.730001449585
16.12,31.0800018310547
16.13,32.4400024414062
16.14,-49.870002746582
16.15,-51.3400039672852
16.16,-32.2000007629395
16.17,20.0900001525879
16.18,-18.2000007629395
16.19,-21.310001373291
16.2,24.8800010681152
16.21,20.9300003051758
16.22,16.8700008392334
16.23,9.20000076293945
16.24,54.2100028991699
16.25,28.8400020599365
16.26,19.3500003814697
16.27,37.7300033569336
16.28,8.53999996185303
16.29,-2.97000002861023
16.3,-28.4900016784668
16.309,18.9700012207031
16.319,-10.3200006484985
16.329,-18.7600002288818
16.339,-15.4300003051758
16.349,67.3400039672852
16.359,51.4800033569336
16.369,16.9400005340576
16.379,61.4900016784668
16.389,26.0400009155273
16.399,-9.3100004196167
16.409,-51.4100036621094
16.419,21.1000003814697
16.429,37.2700004577637
16.439,26.9100017547607
16.449,-18.3400001525879
16.459,24.3200016021729
16.469,15.7500009536743
16.479,27.2600021362305
16.489,10.9900007247925
16.499,23.8700008392334
16.507,47.9500007629395
16.517,14.0300006866455
16.527,-34.0200004577637
16.537,16.3400001525879
16.547,40.4600028991699
16.557,-27.8200016021729
16.567,-46.2300033569336
16.577,-21.6300010681152
16.587,35.3800010681152
16.597,-10.2500009536743
16.607,-17.6400012969971
16.617,-26.4900016784668
16.627,24.2500019073486
16.637,-37.9400024414062
16.647,-10.5700006484985
16.657,17.8500003814697
16.667,13.2300004959106
16.677,-36.0800018310547
16.687,-24.0100002288818
16.697,28.1700019836426
16.701,10.5300006866455
16.711,-17.6400012969971
16.721,23.9000015258789
16.731,44.9400024414062
16.741,11.6900005340576
16.751,0.0300000011920929
16.761,5.35000038146973
16.771,11.8600006103516
16.781,-5.35000038146973
16.791,-5.35000038146973
16.801,22.9200019836426
16.811,15.5700006484985
16.821,-7.91000032424927
16.831,16.9000015258789
16.841,34.5800018310547
16.851,45.6700019836426
16.86,15.0800008773804
16.87,4.30000019073486
16.88,10.4300003051758
16.89,28.3500022888184
16.9,22.7100009918213
16.91,39.8300018310547
16.92,59.3200035095215
16.93,21.7700004577637
16.94,44.4100036621094
16.95,51.2000007629395
16.96,-7.28000020980835
16.97,-17.1500015258789
16.98,-37.5500030517578
16.99,24.1500015258789
17,26.7400016784668
17.01,-22.7500019073486
17.02,-14.4200010299683
17.03,-13.8900003433228
17.04,26.7000007629395
17.05,36.2900009155273
17.058,-2.90000009536743
17.068,-0.140000000596046
17.078,3.08000016212463
17.088,25.1600017547607
17.098,25.6900005340576
17.108,12.6700010299683
17.118,-18.8600006103516
17.128,11.7900009155273
17.138,34.3300018310547
17.148,5.88000011444092
17.158,-22.3300018310547
17.168,15.0800008773804
17.178,47.3500022888184
17.188,-15.3600006103516
17.198,-37.5500030517578
17.208,21.4500007629395
17.218,21.0300006866455
17.228,-9.45000076293945
17.238,27.5400009155273
17.248,57.680004119873
17.257,17.3900012969971
17.267,-9.34000015258789
17.277,-5.91000032424927
17.287,17.7400016784668
17.297,34.370002746582
17.307,-3.88000011444092
17.317,-34.9600028991699
17.327,-1.71000003814697
17.337,12.9100008010864
17.347,11.6900005340576
17.357,-9.83000087738037
17.367,5.70000028610229
17.377,42.310001373291
17.387,9.03000068664551
17.397,28.6300010681152
17.407,0.630000054836273
17.417,1.85000014305115
17.427,51.2700042724609
17.437,23.8700008392334
17.447,-6.75000047683716
17.451,28.6300010681152
17.461,20.7900009155273
17.471,-17.6400012969971
17.481,-4.72000026702881
17.491,-5.35000038146973
17.501,-1.54000008106232
17.511,42.2100028991699
17.521,19.25
17.531,3.01000022888184
17.541,-15.3300008773804
17.551,19.8400001525879
17.561,16.060001373291
17.571,-17.7400016784668
17.581,12.5300006866455
17.591,22.7800006866455
17.601,11.3700008392334
17.61,-16.8299999237061
17.62,-5.21000003814697
17.63,8.85000038146973
17.64,10.0800008773804
17.65,4.26999998092651
17.66,0.0700000002980232
17.67,-17.4300003051758
17.68,11.5800008773804
17.69,23.2000007629395
17.7,12.7000007629395
17.71,-10.5700006484985
17.72,-2.59000015258789
17.73,3.08000016212463
17.74,1.75000011920929
17.75,5.35000038146973
17.76,13.3700008392334
17.77,-1.26000010967255
17.78,-3.29000020027161
17.79,-23.6900005340576
17.8,10.8100004196167
17.808,36.5700035095215
17.818,-15.2600011825562
17.828,-12.0000009536743
17.838,5.25000047683716
17.848,-0.490000009536743
17.858,2.76000022888184
17.868,4.8600001335144
17.878,6.65000009536743
17.888,-19.3500003814697
17.898,3.95000028610229
17.908,37.3800010681152
17.918,-9.13000011444092
17.928,-5.63000011444092
17.938,33.5300025939941
17.948,20.1600017547607
17.958,-13.4700002670288
17.968,-3.08000016212463
17.978,7.21000051498413
17.988,26.9500007629395
17.998,21.5900001525879
18.007,-2.59000015258789
18.017,-8.40000057220459
18.027,5.67000007629395
18.037,6.33000040054321
18.047,-4.83000040054321
18.057,7.59000015258789
18.067,20.1600017547607
18.077,11.7600002288818
18.087,-31.2900009155273
18.097,0.140000000596046
18.107,6.26000022888184
18.117,17.25
18.127,3.01000022888184
18.137,3.74000024795532
18.147,6.8600001335144
18.157,-2.20000004768372
18.167,15.8900003433228
18.177,5.5600004196167
18.187,7.38000011444092
18.197,21.4900016784668
18.201,10.1100006103516
18.211,-6.65000009536743
18.221,12.7700004577637
18.231,9.20000076293945
18.241,3.64000010490417
18.251,20.9600009918213
18.261,4.26999998092651
18.271,10.7800006866455
18.281,27.6800022125244
18.291,-21.2800006866455
18.301,-23.2700004577637
18.311,31.9900016784668
18.321,0.910000026226044
18.331,-17.9900016784668
18.341,28.5200004577637
18.351,8.92000007629395
18.36,-15.6800003051758
18.37,20.4400005340576
18.38,12.8800010681152
18.39,1.78000009059906
18.4,-0.490000009536743
18.41,22.4000015258789
18.42,-1.82000005245209
18.43,-1.12000000476837
18.44,14.6600008010864
18.45,10.9200000762939
18.46,0.800000011920929
18.47,2.41000008583069
18.48,5.35000038146973
18.49,6.72000026702881
18.5,17.8500003814697
18.51,6.75000047683716
18.52,0.170000001788139
18.53,-7.24000024795532
18.54,-3.3600001335144
18.55,7.94000053405762
18.558,20.4000015258789
18.568,-11.1300001144409
18.578,12.0700006484985
18.588,5.1100001335144
18.598,0.910000026226044
18.608,3.01000022888184
18.618,31.2900009155273
18.628,24.0100002288818
18.638,16.5900001525879
18.648,-0.560000002384186
18.658,-2.94000005722046
18.668,19.560001373291
18.678,7.77000045776367
18.688,-1.47000002861023
18.698,5.39000034332275
18.708,-19.980001449585
18.718,-24.1800003051758
18.728,-4.93000030517578
18.738,43.1500015258789
18.748,13.6500005722046
18.757,4.58000040054321
18.767,-3.46000027656555
18.777,-3.74000024795532
18.787,-12.7000007629395
18.797,21.730001449585
18.807,34.6500015258789
18.817,11.5500001907349
18.827,-18.6200008392334
18.837,-14.0000009536743
18.847,4.58000040054321
18.857,11.6500005722046
18.867,5.25000047683716
18.877,2.62000012397766
18.887,-6.79000043869019
18.897,4.93000030517578
18.907,6.89000034332275
18.917,16.4500007629395
18.927,26.2100009918213
18.937,-2.90000009536743
18.947,2.38000011444092
18.952,-28.5900020599365
18.962,-33.6000022888184
18.972,32.8300018310547
18.982,49.560001373291
18.992,12.1400003433228
19.002,4.16000032424927
19.012,13.8600006103516
19.022,-3.22000026702881
19.032,6.96000051498413
19.042,50.3300018310547
19.052,46.9700012207031
19.062,26.2800006866455
19.072,-4.65000009536743
19.082,-34.75
19.092,1.82000005245209
19.102,43.2900009155273
19.11,31.1800022125244
19.12,2.55000019073486
19.13,-8.43000030517578
19.14,-10.0100002288818
19.15,-5.95000028610229
19.16,6.37000036239624
19.17,17.0400009155273
19.18,24.6700019836426
19.19,8.78000068664551
19.2,-15.7800006866455
19.21,-11.3000001907349
19.22,-14.5200004577637
19.23,-6.33000040054321
19.24,8.68000030517578
19.25,-0.310000002384186
19.26,-14.7300004959106
19.27,21.1400012969971
19.28,23.8000011444092
19.29,2.24000000953674
19.3,3.57000017166138
19.308,27.9300022125244
19.318,-5.49000024795532
19.328,-14.5600004196167
19.338,20.5400009155273
19.348,15.4300003051758
19.358,-23.9000015258789
19.368,-4.79000043869019
19.378,17.7400016784668
19.388,12.2500009536743
19.398,12.1100006103516
19.408,47.6300010681152
19.418,15.5700006484985
19.428,-16.3400001525879
19.438,8.64000034332275
19.448,20.1900005340576
19.458,18.1600017547607
19.468,15.4000005722046
19.478,-9.03000068664551
19.488,-14.8700008392334
19.498,-3.32000017166138
19.507,-5.04000043869019
19.517,5.1100001335144
19.527,2.69000005722046
19.537,-10.7800006866455
19.547,-22.3600006103516
19.557,15.5700006484985
19.567,29.0800018310547
19.577,-15.2900009155273
19.587,5.70000028610229
19.597,-7.03000020980835
19.607,23.310001373291
19.617,43.8900032043457
19.627,4.90000009536743
19.637,21.2800006866455
19.647,35.7700004577637
19.657,10.2500009536743
19.667,0.170000001788139
19.677,36.6400032043457
19.687,41.1900024414062
19.697,11.9700002670288
19.701,15.4300003051758
19.711,-37.5200004577637
19.721,-22.7500019073486
19.731,7.24000024795532
19.741,8.75
19.751,-2.94000005722046
19.761,3.74000024795532
19.771,0.450000017881393
19.781,-8.1200008392334
19.791,13.7500009536743
19.801,8.43000030517578
19.811,74.4800033569336
19.821,47.2800025939941
19.831,-20.9300003051758
19.841,-13.9600009918213
19.851,-9.59000015258789
19.86,-1.71000003814697
19.87,38.9900016784668
19.88,2.27000021934509
19.89,-15.5000009536743
19.9,3.1100001335144
19.91,-29.8900012969971
19.92,1.47000002861023
19.93,22.3600006103516
19.94,29.5400009155273
19.95,24.5300006866455
19.96,-1.4300000667572
19.97,-0.910000026226044
19.98,-7.24000024795532
19.99,-22.3300018310547
20,-32.7200012207031
20.01,-2.27000021934509
20.02,19.2800006866455
20.03,1.64000010490417
20.04,6.6100001335144
20.05,36.4300003051758
20.058,12.2100009918213
20.068,-16.9000015258789
20.078,20.4000015258789
20.088,58.9700012207031
20.098,-0.21000000834465
20.108,-26.0700016021729
20.118,-40.1800003051758
20.128,-7.91000032424927
20.138,46.7600021362305
20.148,52.3900032043457
20.158,6.72000026702881
20.168,16.2000007629395
20.178,27.8200016021729
20.188,7.3100004196167
20.198,-16.8299999237061
20.208,-11.2700004577637
20.218,-6.96000051498413
20.228,6.79000043869019
20.238,-7.66000032424927
20.248,-23.9700012207031
20.257,-28.0700016021729
20.267,4.48000001907349
20.277,19.3200016021729
20.287,8.43000030517578
20.297,25.5500011444092
20.307,25.6500015258789
20.317,10.6400003433228
20.327,3.22000026702881
20.337,24.7800006866455
20.347,9.27000045776367
20.357,-43.5700035095215
20.367,-2.06000018119812
20.377,45.2900009155273
20.387,37.9000015258789
20.397,0.140000000596046
20.407,43.3600006103516
20.417,47.4900016784668
20.427,5.67000007629395
20.437,-42.6300010681152
20.447,-34.0500030517578
20.451,1.33000004291534
20.461,40.3900032043457
20.471,42.9100036621094
20.481,59.1500015258789
20.491,68.1100006103516
20.501,23.5200004577637
20.511,16.6900005340576
20.521,31.6400012969971
20.531,-3.25000023841858
20.541,-12.1800003051758
20.551,-26.3900012969971
20.561,-20.7900009155273
20.571,31.8500022888184
20.581,29.7100009918213
20.591,-6.40000009536743
20.601,-34.6100006103516
20.61,-30.2700023651123
20.62,22.6100006103516
20.63,19.4200000762939
20.64,15.9200010299683
20.65,6.82000017166138
20.66,-2.87000012397766
20.67,12.5300006866455
20.68,11.6900005340576
20.69,15.8500003814697
20.7,29.6800022125244
20.71,1.36000001430511
20.72,6.19000005722046
20.73,10.8800001144409
20.74,-0.280000001192093
20.75,8.15000057220459
20.76,-6.51000022888184
20.77,-10.6700000762939
20.78,-7.94000053405762
20.79,6.8600001335144
20.8,6.96000051498413
20.808,-6.93000030517578
20.818,-12.6300010681152
20.828,-13.1200008392334
20.838,8.26000022888184
20.848,16.8000011444092
20.858,-18.4400005340576
20.868,-31.5300006866455
20.878,-5.63000011444092
20.888,23.5500011444092
20.898,26.4600009918213
20.908,23.730001449585
20.918,21.4500007629395
20.928,29.7800006866455
20.938,19.25
20.948,26.3900012969971
20.958,13.5800008773804
20.968,-13.6500005722046
20.978,-33.3900032043457
20.988,0.21000000834465
20.998,9.55000019073486
21.007,0
21.017,-0.560000002384186
21.027,6.23000049591064
21.037,10.4300003051758
21.047,23.7600002288818
21.057,18.9300003051758
21.067,-12.8400001525879
21.077,-8.53999996185303
21.087,-5.74000024795532
21.097,-7.5600004196167
21.107,6.30000019073486
21.117,-2.34000015258789
21.127,-1.4300000667572
21.137,9.90000057220459
21.147,17.5300006866455
21.157,29.9900016784668
21.167,24.6400012969971
21.177,-4.01999998092651
21.187,2.31000018119812
21.197,3.39000010490417
21.201,14.9100008010864
21.211,15.5700006484985
21.221,11.3400001525879
21.231,1.08000004291534
21.241,-24.5700016021729
21.251,-6.33000040054321
21.261,20.5100002288818
21.271,31.0400009155273
21.281,6.26000022888184
21.291,18.5500011444092
21.301,-4.72000026702881
21.311,-6.05000019073486
21.321,-20.0900001525879
21.331,-16.4099998474121
21.341,42.9100036621094
21.351,25.230001449585
21.359,-11.7900009155273
21.369,22.7500019073486
21.379,20.7200012207031
21.389,-24.6400012969971
21.399,-3.3600001335144
21.409,30.6600017547607
21.419,4.76000022888184
21.429,-35.6599998474121
21.439,-8.96000003814697
21.449,-9.48000049591064
21.459,-9.48000049591064
21.469,55.2600021362305
21.479,67.1600036621094
21.489,-0.310000002384186
21.499,-25.9300003051758
21.509,-3.22000026702881
21.519,14.3100004196167
21.529,13.5400009155273
21.539,-17.6700000762939
21.549,-2.94000005722046
21.558,-2.90000009536743
21.568,16.1300010681152
21.578,36.6100006103516
21.588,10.5700006484985
21.598,-19.9100017547607
21.608,10.5000009536743
21.618,54.180004119873
21.628,11.2700004577637
21.638,-13.5100002288818
21.648,16.7600002288818
21.658,-9.20000076293945
21.668,-16.2000007629395
21.678,-4.83000040054321
21.688,7.38000011444092
21.698,-11.3400001525879
21.708,16.9000015258789
21.718,20.7200012207031
21.728,7.38000011444092
21.738,13.8200006484985
21.748,8.68000030517578
21.757,15.1500005722046
21.767,9.38000011444092
21.777,28.7000007629395
21.787,30.9400005340576
21.797,-3.95000028610229
21.807,-14.6300010681152
21.817,23.310001373291
21.827,11.0600004196167
21.837,-14.3100004196167
21.847,2.90000009536743
21.857,7.38000011444092
21.867,-0.840000033378601
21.877,8.78000068664551
21.887,16.3400001525879
21.897,-7.52000045776367
21.907,0.0700000002980232
21.917,34.3000030517578
21.927,-1.29000008106232
21.937,-28.730001449585
21.947,8.15000057220459
21.952,1.33000004291534
21.962,-7.00000047683716
21.972,15.1500005722046
21.982,16.4500007629395
21.992,-12.9500007629395
22.002,-0.490000009536743
22.012,21.9400005340576
22.022,-12.8400001525879
22.032,-20.0500011444092
22.042,-7.3100004196167
22.052,-11.7900009155273
22.062,4.48000001907349
22.072,13.5100002288818
22.082,5.49000024795532
22.092,17.2200012207031
22.102,20.4000015258789
22.109,19.1800003051758
22.119,17.0100002288818
22.129,7.07000017166138
22.139,2.94000005722046
22.149,22.1900005340576
22.159,31.5300006866455
22.169,5.46000003814697
22.179,-8.78000068664551
22.189,-12.4200010299683
22.199,-17.0799999237061
22.209,3.85000014305115
22.219,6.65000009536743
22.229,-9.48000049591064
22.239,-6.12000036239624
22.249,15.4300003051758
22.259,21.1700000762939
22.269,22.6400012969971
22.279,-0.100000001490116
22.289,2.94000005722046
22.299,22.8200016021729
22.308,3.95000028610229
22.318,-29.1900005340576
22.328,-30.4500007629395
22.338,-5.46000003814697
22.348,31.3600006103516
22.358,61.1400032043457
22.368,35.0700035095215
22.378,-0.910000026226044
22.388,-26.0000019073486
22.398,-45.6000022888184
22.408,-13.8600006103516
22.418,-16.5200004577637
22.428,-47.1100006103516
22.438,-37.7600021362305
22.448,-18.2000007629395
22.458,31.1800022125244
22.468,60.9700012207031
22.478,27.6800022125244
22.488,20.3300018310547
22.498,23.5200004577637
22.507,33.7400016784668
22.517,32.370002746582
22.527,12.6700010299683
22.537,-13.5400009155273
22.547,-16.6900005340576
22.557,8.5
22.567,5.53000020980835
22.577,-15.4000005722046
22.587,-2.06000018119812
22.597,21.5200004577637
22.607,29.8900012969971
22.617,35.5900001525879
22.627,11.6200008392334
22.637,-1.71000003814697
22.647,-12.5300006866455
22.657,-12.4600009918213
22.667,12.3200006484985
22.677,22.9200019836426
22.687,23.0300006866455
22.697,44.310001373291
22.701,0.910000026226044
22.711,-9.27000045776367
22.721,-26.6700019836426
22.731,-26.3500003814697
22.741,-23.3400020599365
22.751,-26.1800003051758
22.761,-8.75
22.771,8.92000007629395
22.781,-1.19000005722046
22.791,3.50000023841858
22.801,0.730000019073486
22.811,-10.4300003051758
22.821,-8.05000019073486
22.831,7.1700005531311
22.841,18.5800018310547
22.851,23.060001373291
22.859,10.4300003051758
22.869,11.5500001907349
22.879,15.5400009155273
22.889,15.1900005340576
22.899,15.3300008773804
22.909,16.4099998474121
22.919,7.63000059127808
22.929,-1.19000005722046
22.939,18.6200008392334
22.949,54.0000038146973
22.959,41.1900024414062
22.969,13.4700002670288
22.979,2.52000021934509
22.989,-1.05000007152557
22.999,7.35000038146973
23.009,29.0500011444092
23.019,47.3200035095215
23.029,16.4099998474121
23.039,-7.66000032424927
23.049,-6.44000053405762
23.058,1.36000001430511
23.068,15.5400009155273
23.078,16.2400016784668
23.088,13.5100002288818
23.098,7.35000038146973
23.108,-2.31000018119812
23.118,-8.57000064849854
23.128,-0.870000064373016
23.138,1.26000010967255
23.148,-10.9500007629395
23.158,-15.0500011444092
23.168,-0.840000033378601
23.178,18.5800018310547
23.188,35.3500022888184
23.198,33.6300010681152
23.208,21.8000011444092
23.218,30.2000007629395
23.228,45.810001373291
23.238,36.9900016784668
23.248,29.0800018310547
23.257,21.980001449585
23.267,-6.8600001335144
23.277,14.3100004196167
23.287,27.1900005340576
23.297,21.9400005340576
23.307,20.4400005340576
23.317,-1.75000011920929
23.327,-5.8100004196167
23.337,-14.6300010681152
23.347,-36.7800025939941
23.357,-46.7900009155273
23.367,-31.2200012207031
23.377,6.12000036239624
23.387,10.1500005722046
23.397,12.4200010299683
23.407,31.810001373291
23.417,31.4300022125244
23.427,42.0300025939941
23.437,66.8100051879883
23.447,61.3200035095215
23.451,21.1400012969971
23.461,31.8800010681152
23.471,51.0300025939941
23.481,92.7500076293945
23.491,124.18000793457
23.501,148.68000793457
23.511,177.240005493164
23.521,188.68000793457
23.531,189.450012207031
23.541,196.630004882812
23.551,182.170013427734
23.561,155.710006713867
23.571,138.910003662109
23.581,134.220001220703
23.591,131.740005493164
23.601,129.040008544922
23.609,131.18000793457
23.619,124.110008239746
23.629,128.520004272461
23.639,142.59001159668
23.649,156.690002441406
23.659,144.230010986328
23.669,142.800003051758
23.679,131.670013427734
23.689,103.840003967285
23.699,74.9700012207031
23.709,50.9200019836426
23.719,38.9900016784668
23.729,13.4400005340576
23.739,0.800000011920929
23.749,-17.6400012969971
23.759,-31.3600006103516
23.769,-16.3800010681152
23.779,5.32000017166138
23.789,16.480001449585
23.799,24.8800010681152
23.808,27.1900005340576
23.818,31.0100021362305
23.828,35.4900016784668
23.838,50.9600028991699
23.848,40.9100036621094
23.858,40.8800010681152
23.868,52.4600028991699
23.878,43.2600021362305
23.888,32.7600021362305
23.898,47.8800010681152
23.908,61.7400016784668
23.918,50.7100028991699
23.928,51.9400024414062
23.938,55.4000015258789
23.948,52.430004119873
23.958,39.8300018310547
23.968,17.8500003814697
23.978,2.59000015258789
23.988,-1.85000014305115
23.998,-2.76000022888184
24.007,-3.64000010490417
24.017,-7.14000034332275
24.027,-11.5500001907349
24.037,6.8600001335144
24.047,29.0800018310547
24.057,36.75
24.067,35.5200004577637
24.077,46.4400024414062
24.087,45.0800018310547
24.097,27.4400005340576
24.107,22.9600009918213
24.117,23.1700019836426
24.127,-9.27000045776367
24.137,-26.7700004577637
24.147,-35.9400024414062
24.157,-62.4700012207031
24.167,-86.1300048828125
24.177,-97.3000030517578
24.187,-98.8400039672852
24.197,-98.0000076293945
24.201,-9.13000011444092
24.211,5.98000049591064
24.221,25.060001373291
24.231,46.7600021362305
24.241,57.4000015258789
24.251,52.9200019836426
24.261,55.5400009155273
24.271,47.0400009155273
24.281,27.7500019073486
24.291,10.2200002670288
24.301,-8.43000030517578
24.311,-27.4000015258789
24.321,-44.310001373291
24.331,-52.8800010681152
24.341,-64.75
24.351,-69.5400009155273
24.359,-63.2400016784668
24.369,-45.6700019836426
24.379,-20.4000015258789
24.389,9.83000087738037
24.399,35.2100028991699
24.409,40.7000007629395
24.419,18.6200008392334
24.429,-3.74000024795532
24.439,-1.82000005245209
24.449,3.1800000667572
24.459,2.13000011444092
24.469,-10.7400007247925
24.479,-15.9200010299683
24.489,-13.8900003433228
24.499,2.87000012397766
24.509,26.810001373291
24.519,59.0100021362305
24.529,83.5400009155273
24.539,86.0300064086914
24.549,81.5100021362305
24.558,89.3200073242188
24.568,75.5600051879883
24.578,51.6900024414062
24.588,22.3600006103516
24.598,-19.1400012969971
24.608,-14.2800006866455
24.618,-2.24000000953674
24.628,0.660000026226044
24.638,-33.6700019836426
24.648,-41.9600028991699
24.658,-23.480001449585
24.668,14.0000009536743
24.678,43.2600021362305
24.688,34.8600006103516
24.698,47.6000022888184
24.708,67.0200042724609
24.718,107.17000579834
24.728,113.890007019043
24.738,76.4400024414062
24.748,39.0900001525879
24.757,-5.60000038146973
24.767,26.2100009918213
24.777,34.6100006103516
24.787,-42.4500007629395
24.797,-62.120002746582
24.807,-5.95000028610229
24.817,-25.8300018310547
24.827,-92.9200057983398
24.837,-62.8900032043457
24.847,1.47000002861023
24.857,37.7600021362305
24.867,-10.9200000762939
24.877,-7.07000017166138
24.887,22.4700012207031
24.897,68.9500045776367
24.907,41.0200004577637
24.917,83.3000030517578
24.927,105.310005187988
24.937,83.370002746582
24.947,22.4700012207031
24.952,-84.9400024414062
24.962,-49.6300010681152
24.972,-65.3400039672852
24.982,-92.0100021362305
24.992,27.4700012207031
25.002,103.490005493164
25.012,102.76000213623
25.022,79.3400039672852
25.032,110.490005493164
25.042,119.100006103516
25.052,81.7200012207031
25.062,25.3000011444092
25.072,-32.1599998474121
25.082,-15.6100006103516
25.092,-52.0100021362305
25.102,-83.2600021362305
25.109,-55.930004119873
25.119,-67.8600006103516
25.129,-50.7500038146973
25.139,11.4800004959106
25.149,39.9300003051758
25.159,6.44000053405762
25.169,43.8200035095215
25.179,76.370002746582
25.189,56.0700035095215
25.199,49.7700004577637
25.209,31.1800022125244
25.219,14.2100009918213
25.229,15.0800008773804
25.239,-1.26000010967255
25.249,-75.1100006103516
25.259,-56.9400024414062
25.269,-3.29000020027161
25.279,-41.0500030517578
25.289,-45.5000038146973
25.299,-28.980001449585
25.308,-57.1900024414062
25.318,-91.0300064086914
25.328,-16.6900005340576
25.338,-8.57000064849854
25.348,-30.7600021362305
25.358,-17.7800006866455
25.368,18.3700008392334
25.378,-1.15000009536743
25.388,31.2200012207031
25.398,84.2100067138672
25.408,73.8100051879883
25.418,14.7300004959106
25.428,25.9000015258789
25.438,91.0300064086914
25.448,49.2800025939941
25.458,56.2100028991699
25.468,23.8300018310547
25.478,22.1500015258789
25.488,66.7100067138672
25.498,37.9700012207031
25.507,52.0400009155273
25.517,53.2000007629395
25.527,28.3800010681152
25.537,36.120002746582
25.547,49.0300025939941
25.557,-12.7400007247925
25.567,-67.2700042724609
25.577,-23.6900005340576
25.587,27.4700012207031
25.597,-56.7300033569336
25.607,-76.6100006103516
25.617,9.0600004196167
25.627,61.2800025939941
25.637,-32.5800018310547
25.647,-34.6800003051758
25.657,34.8200035095215
25.667,33.1400032043457
25.677,-54.9100036621094
25.687,-15.1500005722046
25.697,47.7000007629395
25.7,74.0600051879883
25.71,100.030006408691
25.72,116.76000213623
25.73,96.3500061035156
25.74,49.4500007629395
25.75,-5.49000024795532
25.76,-23.5900020599365
25.77,-36.1900024414062
25.78,-61.6700019836426
25.79,-80.5700073242188
25.8,-135.240005493164
25.81,-140.139999389648
25.82,-97.370002746582
25.83,-36.3600006103516
25.84,2.73000001907349
25.85,24.6400012969971
25.859,45.1100006103516
25.869,100.310005187988
25.879,131.320007324219
25.889,125.090003967285
25.899,74.8600006103516
25.909,23.6900005340576
25.919,12.9100008010864
25.929,1.05000007152557
25.939,-33.6000022888184
25.949,-43.3600006103516
25.959,-67.6900024414062
25.969,-66.7400054931641
25.979,-51.5500030517578
25.989,-35.9800033569336
25.999,-15.5700006484985
26.009,2.13000011444092
26.019,-2.03000020980835
26.029,-13.3300008773804
26.039,20.4700012207031
26.049,56.2400016784668
26.058,71.640007019043
26.068,56.310001373291
26.078,45.3200035095215
26.088,40.3900032043457
26.098,10.7400007247925
26.108,16.0300006866455
26.118,-5.67000007629395
26.128,-2.73000001907349
26.138,27.8200016021729
26.148,40.4200019836426
26.158,18.5800018310547
26.168,25.6900005340576
26.178,56.6300010681152
26.188,58.6600036621094
26.198,53.7600021362305
26.208,37.6900024414062
26.218,5.42000007629395
26.228,-7.03000020980835
26.238,11.9700002670288
26.248,16.3400001525879
26.253,-24.3900012969971
26.263,-52.4600028991699
26.273,-44.870002746582
26.283,-57.7500038146973
26.293,-64.5400009155273
26.303,-53.060001373291
26.313,-39.4800033569336
26.323,-31.4300022125244
26.333,17.9900016784668
26.343,47.9100036621094
26.353,30.5200023651123
26.363,27.4400005340576
26.373,7.84000015258789
26.383,-9.66000080108643
26.393,-3.4300000667572
26.403,-12.4600009918213
26.41,-27.4400005340576
26.42,-10.5000009536743
26.43,-25.5800018310547
26.44,-52.0800018310547
26.45,-21.980001449585
26.46,5.5600004196167
26.47,-4.65000009536743
26.48,16.8000011444092
26.49,14.3800010681152
26.5,4.23000001907349
26.51,21.5900001525879
26.52,40.3500022888184
26.53,5.63000011444092
26.54,-4.26999998092651
26.55,-14.2100009918213
26.56,-10.7800006866455
26.57,-11.0200004577637
26.58,-19.7400016784668
26.59,-6.30000019073486
26.6,10.8500003814697
26.609,2.20000004768372
26.619,64.3300018310547
26.629,64.0800018310547
26.639,30.3800010681152
26.649,68.8100051879883
26.659,55.5800018310547
26.669,8.5
26.679,-32.2300033569336
26.689,-19.810001373291
26.699,56.9100036621094
26.709,21.8700008392334
26.719,-22.5000019073486
26.729,-15.3600006103516
26.739,-20.6800003051758
26.749,-15.8900003433228
26.759,-3.29000020027161
26.769,-13.8600006103516
26.779,-2.83000016212463
26.789,11.1300001144409
26.799,16.1300010681152
26.808,11.4400005340576
26.818,13.6800003051758
26.828,6.82000017166138
26.838,23.1300010681152
26.848,24.8500003814697
26.858,-22.4300003051758
26.868,-27.7900009155273
26.878,-6.96000051498413
26.888,32.4400024414062
26.898,29.0100021362305
26.908,13.1200008392334
26.918,8.01000022888184
26.928,8.07999992370605
26.938,-6.75000047683716
26.948,-21.980001449585
26.958,-10.8500003814697
26.968,16.6599998474121
26.978,35.5900001525879
26.988,11.7200002670288
26.998,-8.82000064849854
27.002,-6.54000043869019
27.012,-7.4200005531311
27.022,-8.68000030517578
27.032,-25.4100017547607
27.042,-17.5700016021729
27.052,-24.4300003051758
27.062,-39.2000007629395
27.072,-38.4600028991699
27.082,-29.7100009918213
27.092,-16.9700012207031
27.102,-11.2000007629395
27.112,0.660000026226044
27.122,2.69000005722046
27.132,-0.140000000596046
27.142,-6.40000009536743
27.152,-38.1500015258789
27.16,-42.6600036621094
27.17,-52.7800025939941
27.18,-42.560001373291
27.19,9.90000057220459
27.2,27.6500015258789
27.21,33.9800033569336
27.22,34.4700012207031
27.23,48.3300018310547
27.24,51.6900024414062
27.25,20.4000015258789
27.26,-16.5900001525879
27.27,2.52000021934509
27.28,10.460000038147
27.29,7.03000020980835
27.3,-17.7400016784668
27.31,12.0400009155273
27.32,23.1700019836426
27.33,16.9700012207031
27.34,9.69000053405762
27.35,34.3000030517578
27.359,35.560001373291
27.369,5.14000034332275
27.379,14.1400003433228
27.389,45.2900009155273
27.399,67.370002746582
27.409,87.2200012207031
27.419,104.750007629395
27.429,128.830001831055
27.439,161.380004882812
27.449,179.020004272461
27.459,194.530014038086
27.469,211.850006103516
27.479,223.960006713867
27.489,253.500015258789
27.499,296.900024414062
27.509,280.100006103516
27.519,264.390014648438
27.529,269.080017089844
27.539,263.480010986328
27.549,200.650009155273
27.558,101.570007324219
27.568,34.4000015258789
27.578,10.6000003814697
27.588,-69.6500015258789
27.598,-184.130004882812
27.608,-259.070007324219
27.618,-275.690002441406
27.628,-346.010009765625
27.638,-391.610015869141
27.648,-415.480010986328
27.658,-407.960021972656
27.668,-419.540008544922
27.678,-361.410003662109
27.688,-268.800018310547
27.698,-194.600006103516
27.708,-114.450004577637
27.718,-26.0000019073486
27.728,61.0000038146973
27.738,102.650001525879
27.748,94.8100051879883
27.753,72.3100051879883
27.763,65.4500045776367
27.773,45.6400032043457
27.783,34.4700012207031
27.793,22.0500011444092
27.803,6.09000015258789
27.813,-2.52000021934509
27.823,33
27.833,46.6500015258789
27.843,36.7100028991699
27.853,43.7800025939941
27.863,65.7600021362305
27.873,88.1600036621094
27.883,86.4500045776367
27.893,68.2800064086914
27.903,67.0900039672852
27.91,76.6100006103516
27.92,68.9500045776367
27.93,46.5100021362305
27.94,28.6600017547607
27.95,34.5800018310547
27.96,31.6400012969971
27.97,13.0900001525879
27.98,-1.57000005245209
27.99,-20.230001449585
28,-31.7100009918213
28.01,-39.3000030517578
28.02,-37.9000015258789
28.03,-59.3900032043457
28.04,-61.8400039672852
28.05,-30.4500007629395
28.06,-1.50000011920929
28.07,20.6800003051758
28.08,49.1000022888184
28.09,89.8400039672852
28.1,118.580001831055
28.109,139.510009765625
28.119,165.020004272461
28.129,182.84001159668
28.139,180.350006103516
28.149,184.830001831055
28.159,182.630004882812
28.169,164.710006713867
28.179,130.690002441406
28.189,114.620002746582
28.199,85.8500061035156
28.209,66.0800018310547
28.219,36.7100028991699
28.229,0.100000001490116
28.239,-42.6300010681152
28.249,-93.620002746582
28.259,-126.940002441406
28.269,-145.880004882812
28.279,-191.690002441406
28.289,-257.809997558594
28.299,-298.200012207031
28.308,-324.130004882812
28.318,-320.070007324219
28.328,-317.590026855469
28.338,-286.860015869141
28.348,-202.370010375977
28.358,-119.280006408691
28.368,-73.2900009155273
28.378,-64.6100006103516
28.388,-30.4100017547607
28.398,-7.63000059127808
28.408,22.7100009918213
28.418,33.9099998474121
28.428,46.6500015258789
28.438,57.7500038146973
28.448,74.7600021362305
28.458,46.6500015258789
28.468,13.3300008773804
28.478,10.0400009155273
28.488,-9.0600004196167
28.498,-24.9900016784668
28.502,37.5900001525879
28.512,37.060001373291
28.522,71.3600006103516
28.532,117.42000579834
28.542,137.370010375977
28.552,156.940002441406
28.562,181.860015869141
28.572,207.970016479492
28.582,229.880004882812
28.592,224.450012207031
28.602,185.530014038086
28.612,160.510009765625
28.622,180.140014648438
28.632,168.980010986328
28.642,134.820007324219
28.652,113.220008850098
28.66,101.320007324219
28.67,90.7900009155273
28.68,75.9100036621094
28.69,58.4800033569336
28.7,55.5100021362305
28.71,50.7800025939941
28.72,40.9500007629395
28.73,36.3300018310547
28.74,36.9900016784668
28.75,22.0100002288818
28.76,16.8299999237061
28.77,17.2200012207031
28.78,7.84000015258789
28.79,-12.7400007247925
28.8,-5.5600004196167
28.81,-7.66000032424927
28.82,-15.7800006866455
28.83,-11.4400005340576
28.84,8.57000064849854
28.85,-2.55000019073486
28.859,-10.8100004196167
28.869,0.170000001788139
28.879,-1.78000009059906
28.889,-22.4300003051758
28.899,-44.5500030517578
28.909,-40.1800003051758
28.919,-48.7200012207031
28.929,-70.4500045776367
28.939,-81.0600051879883
28.949,-70.1700057983398
28.959,-70.3800048828125
28.969,-76.2600021362305
28.979,-69.7200012207031
28.989,-67.4800033569336
28.999,-84.1700057983398
29.009,-82.5300064086914
29.019,-49.1700019836426
29.029,-24.9900016784668
29.039,-36.0500030517578
29.049,-56.7000045776367
29.058,-75.4200057983398
29.068,-84.8000030517578
29.078,-107.270004272461
29.088,-122.01000213623
29.098,-121.270004272461
29.108,-84.0700073242188
29.118,-74.2000045776367
29.128,-65.620002746582
29.138,-12.5600004196167
29.148,42.8000030517578
29.158,63.0700035095215
29.168,61.810001373291
29.178,46.4800033569336
29.188,29.4300022125244
29.198,16.5500011444092
29.208,2.55000019073486
29.218,-12.8800010681152
29.228,-7.03000020980835
29.238,15.8900003433228
29.248,30.1700019836426
29.253,59.810001373291
29.263,54.3200035095215
29.273,50.7500038146973
29.283,46.930004119873
29.293,23.6200008392334
29.303,15.2900009155273
29.313,10.8500003814697
29.323,-3.39000010490417
29.333,-4.26999998092651
29.343,8.05000019073486
29.353,9.45000076293945
29.363,-5.28000020980835
29.373,-7.73000049591064
29.383,-1.71000003814697
29.393,-13.6500005722046
29.403,-21.6600017547607
29.41,-21.8000011444092
29.42,-30.060001373291
29.43,-29.4000015258789
29.44,-16.5200004577637
29.45,6.23000049591064
29.46,14.3500003814697
29.47,7.38000011444092
29.48,22.0500011444092
29.49,35.4200019836426
29.5,9.10000038146973
29.51,1.85000014305115
29.52,24.1100006103516
29.53,20.5800018310547
29.54,12.0000009536743
29.55,28.5200004577637
29.56,17.3600006103516
29.57,8.43000030517578
29.58,21.7700004577637
29.59,25.6200008392334
29.6,5.1100001335144
29.609,-16.4500007629395
29.619,1.71000003814697
29.629,10.8100004196167
29.639,-16.5200004577637
29.649,-11.3700008392334
29.659,7.87000036239624
29.669,0.800000011920929
29.679,10.460000038147
29.689,38.3600006103516
29.699,20.3300018310547
29.709,-8.1200008392334
29.719,6.82000017166138
29.729,17.4300003051758
29.739,-14.4500007629395
29.749,-31.7400016784668
29.759,3.50000023841858
29.769,17.3900012969971
29.779,-3.25000023841858
29.789,11.4100008010864
29.799,20.5100002288818
29.808,-1.12000000476837
29.818,-3.01000022888184
29.828,31.8800010681152
29.838,32.1599998474121
29.848,9.03000068664551
29.858,6.33000040054321
29.868,9.17000007629395
29.878,-11.2000007629395
29.888,-33.4200019836426
29.898,-7.5600004196167
29.908,14.5900011062622
29.918,-2.38000011444092
29.928,10.5300006866455
29.938,36.8200035095215
29.948,24.2900009155273
29.958,-1.4300000667572
29.968,10.7800006866455
29.978,28.6300010681152
29.988,19.4600009918213
29.998,11.3400001525879
30.001,2.34000015258789
30.011,-4.26999998092651
30.021,8.07999992370605
30.031,19.3900012969971
30.041,20.9600009918213
30.051,13.6100006103516
30.061,12.8800010681152
30.071,15.9600009918213
30.081,12.1400003433228
30.091,9.73000049591064
30.101,7.38000011444092
30.111,-0.420000016689301
30.121,1.40000009536743
30.131,6.54000043869019
30.141,4.72000026702881
30.151,6.09000015258789
30.16,8.89000034332275
30.17,10.0400009155273
30.18,6.23000049591064
30.19,10.1800003051758
30.2,22.2900009155273
30.21,19.6700000762939
30.22,13.2300004959106
30.23,14.7300004959106
30.24,25.6500015258789
30.25,23.730001449585
30.26,12.9100008010864
30.27,20.9600009918213
30.28,26.560001373291
30.29,10.7400007247925
30.3,3.1100001335144
30.31,13.5400009155273
30.32,4.44000005722046
30.33,-14.8700008392334
30.34,-19.0400009155273
30.35,-8.92000007629395
30.359,-11.0900001525879
30.369,-16.2000007629395
30.379,-1.71000003814697
30.389,9.97000026702881
30.399,5.67000007629395
30.409,8.32999992370605
30.419,33
30.429,43.4000015258789
30.439,27.6800022125244
30.449,18.8600006103516
30.459,18.1300010681152
30.469,7.07000017166138
30.479,-24.0400009155273
30.489,-25.8600006103516
30.499,1.54000008106232
30.509,14.2400007247925
30.519,2.73000001907349
30.529,8.57000064849854
30.539,19.1100006103516
30.549,7.21000051498413
30.557,-3.99000024795532
30.567,-3.53000020980835
30.577,-5.28000020980835
30.587,-8.92000007629395
30.597,-8.36000061035156
30.607,7.70000028610229
30.617,18.7900009155273
30.627,-0.0700000002980232
30.637,12.4600009918213
30.647,39.7900009155273
30.657,23.2400016784668
30.667,-2.48000001907349
30.677,7.07000017166138
30.687,19.3900012969971
30.697,3.50000023841858
30.707,-32.7900009155273
30.717,-35.4500007629395
30.727,-7.45000028610229
30.737,8.28999996185303
30.747,-7.94000053405762
30.752,8.92000007629395
30.762,13.6100006103516
30.772,-5.32000017166138
30.782,-21.1400012969971
30.792,6.37000036239624
30.802,22.3300018310547
30.812,1.26000010967255
30.822,11.2000007629395
30.832,39.2000007629395
30.842,33.6000022888184
30.852,22.2200012207031
30.862,21.980001449585
30.872,30.5200023651123
30.882,24.4600009918213
30.892,1.92000007629395
30.902,2.27000021934509
30.91,7.35000038146973
30.92,-9.73000049591064
30.93,-20.6100006103516
30.94,-7.10000038146973
30.95,3.01000022888184
30.96,0.800000011920929
30.97,6.54000043869019
30.98,11.9000005722046
30.99,11.0200004577637
31,6.09000015258789
31.01,15.2200002670288
31.02,18.4400005340576
31.03,13.1200008392334
31.04,6.58000040054321
31.05,15.5000009536743
31.06,16.8000011444092
31.07,0.450000017881393
31.08,-7.24000024795532
31.09,12.3900003433228
31.1,17.7400016784668
31.109,2.45000004768372
31.119,4.16000032424927
31.129,22.8900012969971
31.139,22.9200019836426
31.149,9.24000072479248
31.159,17.4300003051758
31.169,38.25
31.179,37.060001373291
31.189,23.3800010681152
31.199,25.9700012207031
31.209,36.4000015258789
31.219,33.9800033569336
31.229,18.5800018310547
31.239,15.7800006866455
31.249,28.560001373291
31.259,23.8300018310547
31.269,11.6900005340576
31.279,17.9900016784668
31.289,28.6300010681152
31.299,23.6600017547607
31.307,14.5200004577637
31.317,20.8600006103516
31.327,34.8200035095215
31.337,32.7900009155273
31.347,22.3600006103516
31.357,36.2600021362305
31.367,49.9800033569336
31.377,41.3000030517578
31.387,33.4200019836426
31.397,45.6000022888184
31.407,59.0400009155273
31.417,52.8800010681152
31.427,41.370002746582
31.437,40.7700004577637
31.447,54.1400032043457
31.457,43.4700012207031
31.467,32.9000015258789
31.477,41.0200004577637
31.487,53.5100021362305
31.497,54.6000022888184
31.501,62.4400024414062
31.511,65.1300048828125
31.521,71.3300018310547
31.531,51.9700012207031
31.541,32.0200004577637
31.551,32.2700004577637
31.561,43.3600006103516
31.571,39.0200004577637
31.581,18.2000007629395
31.591,10.2500009536743
31.601,14.8000011444092
31.611,12.3500003814697
31.621,-19.4900016784668
31.631,-28.730001449585
31.641,-26.3900012969971
31.651,-31.2200012207031
31.66,-46.0900039672852
31.67,-42.9100036621094
31.68,-20.8200016021729
31.69,-5.35000038146973
31.7,-4.26999998092651
31.71,-3.67000007629395
31.72,4.58000040054321
31.73,12.9100008010864
31.74,6.33000040054321
31.75,-20.0200004577637
31.76,-15.0500011444092
31.77,-1.47000002861023
31.78,-15.2200002670288
31.79,-31.2900009155273
31.8,-14.9400005340576
31.81,8.28999996185303
31.82,29.1900005340576
31.83,34.0500030517578
31.84,41.5800018310547
31.85,40.560001373291
31.859,38.6700019836426
31.869,20.7500019073486
31.879,4.90000009536743
31.889,-1.40000009536743
31.899,-1.6800000667572
31.909,-0.590000033378601
31.919,2.97000002861023
31.929,22.3300018310547
31.939,34.7900009155273
31.949,40.2800025939941
31.959,49.1400032043457
31.969,62.7200012207031
31.979,73.25
31.989,70.1000061035156
31.999,64.9200057983398
32.009,71.8500061035156
32.019,72.3800048828125
32.029,69.9300003051758
32.039,66.0100021362305
32.049,75.4600067138672
32.057,84.4200057983398
32.067,81.7600021362305
32.077,71.75
32.087,69.5400009155273
32.097,75.9800033569336
32.107,77.3500061035156
32.117,68.3199996948242
32.127,61.7000045776367
32.137,57.1900024414062
32.147,52.6000022888184
32.157,36.3300018310547
32.167,14.4200010299683
32.177,4.34000015258789
32.187,-6.72000026702881
32.197,-19.3500003814697
32.207,-26.0400009155273
32.217,-19.6000003814697
32.227,-15.7100009918213
32.237,4.16000032424927
32.247,8.99000072479248
32.251,-17.0799999237061
32.261,-25.5100021362305
32.271,-33.4900016784668
32.281,-44.2400016784668
32.291,-50.7800025939941
32.301,-43.0500030517578
32.311,-23.5900020599365
32.321,3.39000010490417
32.331,16.5200004577637
32.341,16.8700008392334
32.351,17.4300003051758
32.361,14.2800006866455
32.371,4.83000040054321
32.381,-4.72000026702881
32.391,-13.4000005722046
32.401,-10.8100004196167
32.41,-7.59000015258789
32.42,-1.99000012874603
32.43,2.55000019073486
32.44,10.0400009155273
32.45,12.4200010299683
32.46,20.7500019073486
32.47,26.6300010681152
32.48,25.4400005340576
32.49,29.9200019836426
32.5,23.1000003814697
32.51,14.9400005340576
32.52,8.28999996185303
32.53,-1.82000005245209
32.54,-8.07999992370605
32.55,-7.66000032424927
32.56,-4.62000036239624
32.57,9.52000045776367
32.58,24.9900016784668
32.59,37.060001373291
32.6,44.1300010681152
32.609,40.560001373291
32.619,36.0100021362305
32.629,24.1100006103516
32.639,3.22000026702881
32.649,2.24000000953674
32.659,-9.0600004196167
32.669,-12.4200010299683
32.679,-6.30000019073486
32.689,2.48000001907349
32.699,7.1700005531311
32.709,9.90000057220459
32.719,21.2800006866455
32.729,32.7900009155273
32.739,38.4600028991699
32.749,31.0800018310547
32.759,34.2600021362305
32.769,31.8500022888184
32.779,23.1000003814697
32.789,11.6500005722046
32.799,1.57000005245209
32.807,2.06000018119812
32.817,10.3900003433228
32.827,9.90000057220459
32.837,14.6300010681152
32.847,27.7500019073486
32.857,27.8200016021729
32.867,31.3900012969971
32.877,24.7800006866455
32.887,14.8400011062622
32.897,4.13000011444092
32.907,1.71000003814697
32.917,6.68000030517578
32.927,-5.88000011444092
32.937,-10.9500007629395
32.947,-1.89000010490417
32.957,8.1200008392334
32.967,14.6600008010864
32.977,14.5900011062622
32.987,21.560001373291
32.997,31.9900016784668
33.001,7.94000053405762
33.011,6.8600001335144
33.021,-16.5200004577637
33.031,-23.9400005340576
33.041,-11.5800008773804
33.051,6.82000017166138
33.061,23.2700004577637
33.071,27.8900012969971
33.081,38.4300003051758
33.091,49.310001373291
33.101,63.4500045776367
33.111,73.9900054931641
33.121,54.8800010681152
33.131,52.5300025939941
33.141,68.25
33.151,77.5600051879883
33.16,67.4400024414062
33.17,59.6700019836426
33.18,63.0000038146973
33.19,70.4500045776367
33.2,88.1300048828125
33.21,77.4200057983398
33.22,69.7900009155273
33.23,81.6900024414062
33.24,82.8800048828125
33.25,73.390007019043
33.26,41.4400024414062
33.27,15.2200002670288
33.28,17.7400016784668
33.29,33.25
33.3,34.9600028991699
33.31,26.5300006866455
33.32,41.0900001525879
33.33,60.4400024414062
33.34,70.9800033569336
33.35,63.0000038146973
33.359,32.3400001525879
33.369,16.9000015258789
33.379,18.230001449585
33.389,31.5700016021729
33.399,23.7600002288818
33.409,6.75000047683716
33.419,15.2600011825562
33.429,28.4200019836426
33.439,42.9800033569336
33.449,36.8200035095215
33.459,20.1600017547607
33.469,25.480001449585
33.479,33.0699996948242
33.489,42.2800025939941
33.499,32.620002746582
33.509,19.3200016021729
33.519,26.6700019836426
33.529,34.7900009155273
33.539,43.7500038146973
33.549,29.6100006103516
33.557,8.75
33.567,9.48000049591064
33.577,15.4300003051758
33.587,20.4000015258789
33.597,17.1500015258789
33.607,-0.840000033378601
33.617,4.48000001907349
33.627,14.8700008392334
33.637,25.0200004577637
33.647,13.8900003433228
33.657,-6.68000030517578
33.667,-8.57000064849854
33.677,-5.70000028610229
33.687,5.28000020980835
33.697,-0.980000019073486
33.707,-24.5000019073486
33.717,-24.9200019836426
33.727,-17.4600009918213
33.737,-3.01000022888184
33.747,0
33.752,38.0800018310547
33.762,28.7000007629395
33.772,27.5100021362305
33.782,28.0700016021729
33.792,34.9300003051758
33.802,31.5700016021729
33.812,11.1600008010864
33.822,-3.95000028610229
33.832,-6.6100001335144
33.842,-11.3700008392334
33.852,-13.3000001907349
33.862,-20.6500015258789
33.872,-33.6300010681152
33.882,-23.5900020599365
33.892,-6.65000009536743
33.902,9.17000007629395
33.91,13.2300004959106
33.92,2.62000012397766
33.93,-5.63000011444092
33.94,-14.2100009918213
33.95,-14.8000011444092
33.96,-15.9200010299683
33.97,-24.2200012207031
33.98,-15.7500009536743
33.99,2.41000008583069
34,19.25
34.01,38.7100028991699
34.02,46.370002746582
34.03,48.680004119873
34.04,49.7000007629395
34.05,47.0400009155273
34.06,46.3000030517578
34.07,39.5100021362305
34.08,21.7700004577637
34.09,13.3700008392334
34.1,8.5
34.109,4.58000040054321
34.119,7.87000036239624
34.129,11.1300001144409
34.139,12.4200010299683
34.149,26.5300006866455
34.159,44.2400016784668
34.169,62.4000015258789
34.179,64.3300018310547
34.189,62.4400024414062
34.199,71.5
34.209,72.6600036621094
34.219,74.2000045776367
34.229,84.7300033569336
34.239,91.5200042724609
34.249,80.1800003051758
34.259,70.7700042724609
34.269,72.0300064086914
34.279,67.0600051879883
34.289,60.2000045776367
34.299,38.25
34.307,16.3800010681152
34.317,3.39000010490417
34.327,-1.85000014305115
34.337,-3.92000007629395
34.347,-18.4100017547607
34.357,-29.7100009918213
34.367,-23.9000015258789
34.377,-18.0200004577637
34.387,2.48000001907349
34.397,16.6900005340576
34.407,11.2700004577637
34.417,14.8000011444092
34.427,15.2900009155273
34.437,15.1200008392334
34.447,17.25
34.457,12.5600004196167
34.467,-6.19000005722046
34.477,-11.5100002288818
34.487,-12.9100008010864
34.497,-0.980000019073486
34.501,30.7600021362305
34.511,41.1600036621094
34.521,31.0800018310547
34.531,6.79000043869019
34.541,-16.1700000762939
34.551,-26.6300010681152
34.561,-16.060001373291
34.571,-0.420000016689301
34.581,-5.32000017166138
34.591,-5.8100004196167
34.601,3.04000020027161
34.611,16.6599998474121
34.621,34.8200035095215
34.631,34.3300018310547
34.641,24.7800006866455
34.651,11.2000007629395
34.66,4.48000001907349
34.67,10.0100002288818
34.68,22.4300003051758
34.69,24.8800010681152
34.7,14.3500003814697
34.71,17.3200016021729
34.72,36.9200019836426
34.73,60.620002746582
34.74,82.3500061035156
34.75,85.2600021362305
34.76,76.890007019043
34.77,71.6800003051758
34.78,67.9000015258789
34.79,77.7000045776367
34.8,73.1500015258789
34.81,52.3900032043457
34.82,32.2000007629395
34.83,18.8300018310547
34.84,19.8800010681152
34.85,24.5000019073486
34.858,15.7100009918213
34.868,4.90000009536743
34.878,-10.9500007629395
34.888,-7.91000032424927
34.898,5.04000043869019
34.908,20.3000011444092
34.918,20.0200004577637
34.928,13.1200008392334
34.938,9.97000026702881
34.948,4.55000019073486
34.958,6.02000045776367
34.968,4.13000011444092
34.978,-8.96000003814697
34.988,-20.1600017547607
34.998,-23.8000011444092
35.008,-17.4300003051758
35.018,-3.08000016212463
35.028,17.5700016021729
35.038,33.2100028991699
35.048,33.4200019836426
35.057,41.4000015258789
35.067,37.7600021362305
35.077,36.2200012207031
35.087,37.7600021362305
35.097,22.7800006866455
35.107,7.80000019073486
35.117,-2.69000005722046
35.127,-13.0200004577637
35.137,-6.33000040054321
35.147,8.96000003814697
35.157,9.48000049591064
35.167,19.7400016784668
35.177,35.8000030517578
35.187,46.620002746582
35.197,69.8199996948242
35.207,93.9000015258789
35.217,95.4100036621094
35.227,91.5600051879883
35.237,85.8500061035156
35.247,64.6399993896484
35.252,-16.310001373291
35.262,-30.060001373291
35.272,-30.1000022888184
35.282,-16.8000011444092
35.292,-16.9400005340576
35.302,-10.6700000762939
35.312,-6.82000017166138
35.322,-3.92000007629395
35.332,1.99000012874603
35.342,8.85000038146973
35.352,13.6800003051758
35.362,24.2500019073486
35.372,33.810001373291
35.382,31.3200016021729
35.392,35.6300010681152
35.402,46.7200012207031
35.41,48.9600028991699
35.42,43.9600028991699
35.43,39.7900009155273
35.44,28.4500007629395
35.45,17.3900012969971
35.46,26.0700016021729
35.47,26.9500007629395
35.48,31.0800018310547
35.49,42.6600036621094
35.5,49.2400016784668
35.51,41.9300003051758
35.52,56.2800025939941
35.53,68.3199996948242
35.54,72.1300048828125
35.55,76.5800018310547
35.56,69.8600006103516
35.57,57.120002746582
35.58,44.310001373291
35.59,36.4700012207031
35.6,41.6800003051758
35.608,47.2500038146973
35.618,45.3200035095215
35.628,42.5900001525879
35.638,51.9700012207031
35.648,65.9700012207031
35.658,85.2600021362305
35.668,109.620002746582
35.678,109.370002746582
35.688,91.7000045776367
35.698,71.0800018310547
35.708,46.2300033569336
35.718,23.6200008392334
35.728,4.55000019073486
35.738,-22.2900009155273
35.748,-41.120002746582
35.758,-49.1700019836426
35.768,-55.6500015258789
35.778,-49.1400032043457
35.788,-25.8300018310547
35.798,-2.80000019073486
35.807,26.2500019073486
35.817,43.9600028991699
35.827,37.4800033569336
35.837,27.2600021362305
35.847,24.810001373291
35.857,21.9100017547607
35.867,14.3500003814697
35.877,14.2400007247925
35.887,4.26999998092651
35.897,-8.71000003814697
35.907,-11.9300003051758
35.917,-0.940000057220459
35.927,10.2200002670288
35.937,25.5800018310547
35.947,45.0100021362305
35.957,50.9200019836426
35.967,41.120002746582
35.977,45.0800018310547
35.987,40.5300025939941
35.997,36.4000015258789
36.001,28.4500007629395
36.011,58.5200042724609
36.021,27.4000015258789
36.031,11.6900005340576
36.041,21.7000007629395
36.051,33.3500022888184
36.061,25.9000015258789
36.071,23.9000015258789
36.081,14.8700008392334
36.091,24.2900009155273
36.101,32.370002746582
36.111,38.7100028991699
36.121,4.13000011444092
36.131,12.3200006484985
36.141,12.3900003433228
36.151,1.64000010490417
36.16,0.490000009536743
36.17,-27.4000015258789
36.18,-64.8199996948242
36.19,-55.4000015258789
36.2,-67.7600021362305
36.21,-59.3900032043457
36.22,-70.5200042724609
36.23,-36.5
36.24,-24.6000003814697
36.25,-18.4100017547607
36.26,0.280000001192093
36.27,-12.2500009536743
36.28,11.3400001525879
36.29,7.5600004196167
36.3,37.7300033569336
36.31,19.9100017547607
36.32,41.4700012207031
36.33,31.810001373291
36.34,21.0300006866455
36.35,56.0000038146973
36.358,56.5900039672852
36.368,51.9700012207031
36.378,71.0100021362305
36.388,59.7400016784668
36.398,57.5700035095215
36.408,81.6900024414062
36.418,47.9500007629395
36.428,8.89000034332275
36.438,6.47000026702881
36.448,-27.8900012969971
36.458,-81.0200042724609
36.468,-101.92000579834
36.478,-120.640007019043
36.488,-162.890014648438
36.498,-198.200012207031
36.508,-180.530014038086
36.518,-157.920013427734
36.528,-160.93000793457
36.538,-125.610008239746
36.548,-86.5200042724609
36.557,-60.1600036621094
36.567,-33.810001373291
36.577,8.53999996185303
36.587,38.0100021362305
36.597,50.8500022888184
36.607,62.0900039672852
36.617,44.4100036621094
36.627,29.0100021362305
36.637,19
36.647,21.7700004577637
36.657,21.0000019073486
36.667,20.3300018310547
36.677,12.6000003814697
36.687,8.82000064849854
36.697,12.9500007629395
36.707,27.7500019073486
36.717,45.0800018310547
36.727,52.7800025939941
36.737,55.8900032043457
36.747,51.620002746582
36.752,78.0800018310547
36.762,77.2400054931641
36.772,84.5900039672852
36.782,99.0500030517578
36.792,134.010009765625
36.802,158.440002441406
36.812,167.440002441406
36.822,160.540008544922
36.832,145.460006713867
36.842,116.76000213623
36.852,100.76000213623
36.862,85.9200057983398
36.872,68.8400039672852
36.882,32.1300010681152
36.892,5.5600004196167
36.902,-22.1900005340576
36.91,-39.8300018310547
36.92,-52.7100028991699
36.93,-68.4900054931641
36.94,-92.7800064086914
36.95,-108.780006408691
36.96,-133.630004882812
36.97,-128.660003662109
36.98,-98.2400054931641
36.99,-63.9800033569336
37,-31.0100021362305
37.01,2.62000012397766
37.02,29.0800018310547
37.03,56.7700042724609
37.04,80.0100021362305
37.05,89.2500076293945
37.06,87.1500015258789
37.07,101.500007629395
37.08,104.540008544922
37.09,93.7300033569336
37.1,82.4200057983398
37.108,73.25
37.118,64.7800064086914
37.128,48.1900024414062
37.138,31.4300022125244
37.148,33.2100028991699
37.158,42.9100036621094
37.168,43.0800018310547
37.178,23.0300006866455
37.188,14.6300010681152
37.198,27.8200016021729
37.208,45.3600006103516
37.218,40.1800003051758
37.228,28.2400016784668
37.238,22.6800003051758
37.248,20.3700008392334
37.258,6.37000036239624
37.268,10.0800008773804
37.278,23.9700012207031
37.288,17.7800006866455
37.298,15.1500005722046
37.307,26.8400020599365
37.317,36.6800003051758
37.327,50.2900009155273
37.337,61.0000038146973
37.347,43.4000015258789
37.357,24.5300006866455
37.367,9.03000068664551
37.377,-18.1300010681152
37.387,-37.3400001525879
37.397,-55.930004119873
37.407,-79.0600051879883
37.417,-86.1300048828125
37.427,-64.3600006103516
37.437,-26.980001449585
37.447,1.96000003814697
37.457,13.6800003051758
37.467,32.9300003051758
37.477,58.6900024414062
37.487,61.180004119873
37.497,62.5800018310547
37.501,-15.1200008392334
37.511,4.65000009536743
37.521,31.4600009918213
37.531,40.560001373291
37.541,36.1900024414062
37.551,20.7900009155273
37.561,0.420000016689301
37.571,-24.4600009918213
37.581,-46.930004119873
37.591,-77.7000045776367
37.601,-103.770004272461
37.611,-98.4500045776367
37.621,-68.9500045776367
37.631,-40.2500038146973
37.641,-23.9000015258789
37.651,3.22000026702881
37.66,27.8200016021729
37.67,31.0100021362305
37.68,21.1000003814697
37.69,26.560001373291
37.7,21.4200000762939
37.71,19.4900016784668
37.72,22.6800003051758
37.73,24.8500003814697
37.74,27.5800018310547
37.75,11.2000007629395
37.76,15.2200002670288
37.77,34.75
37.78,42.5900001525879
37.79,41.5400009155273
37.8,13.1200008392334
37.81,15.4700002670288
37.82,22.8200016021729
37.83,26.0700016021729
37.84,31.6000022888184
37.85,28.1000003814697
37.858,29.9600009918213
37.868,31.8500022888184
37.878,27.8900012969971
37.888,27.0500011444092
37.898,2.03000020980835
37.908,5.95000028610229
37.918,14.9800004959106
37.928,-12.9100008010864
37.938,22.9600009918213
37.948,20.3700008392334
37.958,9.41000080108643
37.968,27.0500011444092
37.978,0.800000011920929
37.988,2.73000001907349
37.998,-0.800000011920929
38.008,7.38000011444092
38.018,6.54000043869019
38.028,11.3000001907349
38.038,2.66000008583069
38.048,-4.37000036239624
38.057,7.21000051498413
38.067,25.4100017547607
38.077,30.730001449585
38.087,21.0000019073486
38.097,15.4700002670288
38.107,27.3000011444092
38.117,43.2600021362305
38.127,38.8500022888184
38.137,11.9300003051758
38.147,-2.94000005722046
38.157,-8.26000022888184
38.167,2.38000011444092
38.177,9.8700008392334
38.187,-5.46000003814697
38.197,-2.97000002861023
38.207,7.03000020980835
38.217,16.9700012207031
38.227,9.48000049591064
38.237,-6.30000019073486
38.247,-4.30000019073486
38.251,-3.67000007629395
38.261,9.76000022888184
38.271,22.4300003051758
38.281,14.1000003814697
38.291,-1.89000010490417
38.301,5.35000038146973
38.311,17.7800006866455
38.321,21.6300010681152
38.331,16.060001373291
38.341,2.24000000953674
38.351,-2.34000015258789
38.361,3.32000017166138
38.371,10.2900009155273
38.381,3.57000017166138
38.391,-11.5800008773804
38.401,-5.77000045776367
38.41,11.2700004577637
38.42,15.4300003051758
38.43,5.70000028610229
38.44,-2.20000004768372
38.45,-2.27000021934509
38.46,16.6900005340576
38.47,19.1800003051758
38.48,6.58000040054321
38.49,2.10000014305115
38.5,1.36000001430511
38.51,12.4200010299683
38.52,24.7400016784668
38.53,16.1700000762939
38.54,-4.76000022888184
38.55,0.450000017881393
38.56,5.49000024795532
38.57,16.1000003814697
38.58,13.4400005340576
38.59,-0.730000019073486
38.6,-1.99000012874603
38.608,8.85000038146973
38.618,21.2800006866455
38.628,18.1300010681152
38.638,-4.48000001907349
38.648,-15.1900005340576
38.658,-1.19000005722046
38.668,11.3000001907349
38.678,6.16000032424927
38.688,-5.25000047683716
38.698,-3.04000020027161
38.708,2.03000020980835
38.718,4.41000032424927
38.728,11.2000007629395
38.738,1.33000004291534
38.748,-0.770000040531158
38.758,3.01000022888184
38.768,14.5600004196167
38.778,21.9100017547607
38.788,5.91000032424927
38.798,-6.44000053405762
38.807,3.22000026702881
38.817,18.060001373291
38.827,20.8900012969971
38.837,8.28999996185303
38.847,-5.53000020980835
38.857,-1.75000011920929
38.867,8.96000003814697
38.877,15.8900003433228
38.887,9.41000080108643
38.897,-0.700000047683716
38.907,3.67000007629395
38.917,9.80000019073486
38.927,16.9400005340576
38.937,15.8200006484985
38.947,5.18000030517578
38.957,1.50000011920929
38.967,8.92000007629395
38.977,22.3600006103516
38.987,15.6800003051758
38.997,-6.02000045776367
39.001,3.81000018119812
39.011,-8.19000053405762
39.021,-5.18000030517578
39.031,5.39000034332275
39.041,20.230001449585
39.051,13.3700008392334
39.061,-10.6000003814697
39.071,-12.0000009536743
39.081,-5.18000030517578
39.091,9.80000019073486
39.101,15.0800008773804
39.111,5.98000049591064
39.121,-4.01999998092651
39.131,0.450000017881393
39.141,15.2200002670288
39.151,26.0700016021729
39.159,15.2900009155273
39.169,3.29000020027161
39.179,1.85000014305115
39.189,8.36000061035156
39.199,19.9500007629395
39.209,14.2800006866455
39.219,-7.94000053405762
39.229,-5.91000032424927
39.239,1.47000002861023
39.249,15.0100011825562
39.259,21.6300010681152
39.269,7.5600004196167
39.279,-10.1500005722046
39.289,-13.8200006484985
39.299,-5
39.309,14.3100004196167
39.319,14.2400007247925
39.329,-4.8600001335144
39.339,-5.32000017166138
39.349,1.92000007629395
39.358,11.3400001525879
39.368,17.3600006103516
39.378,11.2700004577637
39.388,-16.2700004577637
39.398,-9.55000019073486
39.408,10.8800001144409
39.418,15.3300008773804
39.428,9.94000053405762
39.438,-5
39.448,1.40000009536743
39.458,-4.13000011444092
39.468,9.55000019073486
39.478,16.0300006866455
39.488,8.99000072479248
39.498,-12.1800003051758
39.508,-15.3600006103516
39.518,-13.9600009918213
39.528,-11.5500001907349
39.538,-12.1400003433228
39.548,-10.0800008773804
39.557,-14.8700008392334
39.567,-26.560001373291
39.577,6.37000036239624
39.587,10.5300006866455
39.597,-12.0700006484985
39.607,-7.35000038146973
39.617,6.12000036239624
39.627,-9.59000015258789
39.637,1.71000003814697
39.647,1.6100001335144
39.657,-33.6000022888184
39.667,-38.5300025939941
39.677,-7.98000049591064
39.687,-14.9100008010864
39.697,-20.8600006103516
39.707,-28.2400016784668
39.717,-2.59000015258789
39.727,-7.63000059127808
39.737,-1.99000012874603
39.747,15.3300008773804
39.752,-20.7500019073486
39.762,-13.5800008773804
39.772,-45.6000022888184
39.782,1.96000003814697
39.792,-12.4900007247925
39.802,-8.43000030517578
39.812,5.91000032424927
39.822,1.33000004291534
39.832,-21.980001449585
39.842,-45.2500038146973
39.852,-5.1100001335144
39.862,-29.2900009155273
39.872,-30.4500007629395
39.882,-24.5700016021729
39.892,-37.4100036621094
39.902,-26.3500003814697
39.909,-29.7800006866455
39.919,0.420000016689301
39.929,2.20000004768372
39.939,3.22000026702881
39.949,46.6500015258789
39.959,78.4000015258789
39.969,57.7500038146973
39.979,35.5200004577637
39.989,31.2200012207031
39.999,15.8500003814697
40.009,29.6800022125244
40.019,19.1100006103516
40.029,-10.6000003814697
40.039,-11.6900005340576
40.049,-7.1700005531311
40.059,5.42000007629395
40.069,4.76000022888184
40.079,11.0200004577637
40.089,3.50000023841858
40.099,-7.87000036239624
40.108,-5.70000028610229
40.118,-5.35000038146973
40.128,-17.25
40.138,-24.810001373291
40.148,-32.5500030517578
40.158,-39.2300033569336
40.168,-37.3800010681152
40.178,-28.1700019836426
40.188,-21.0300006866455
40.198,-25.3700008392334
40.208,-17.7100009918213
40.218,-5.49000024795532
40.228,30.2400016784668
40.238,38.0100021362305
40.248,7.14000034332275
40.258,6.72000026702881
40.268,17.5700016021729
40.278,11.0200004577637
40.288,19.980001449585
40.298,6.44000053405762
40.307,-3.1100001335144
40.317,11.3400001525879
40.327,20.7200012207031
40.337,26.1100006103516
40.347,11.1300001144409
40.357,8.47000026702881
40.367,21.4200000762939
40.377,12.3500003814697
40.387,-0.490000009536743
40.397,-6.47000026702881
40.407,-8.82000064849854
40.417,-9.27000045776367
40.427,16.2000007629395
40.437,-8.85000038146973
40.447,-24.9500007629395
40.457,-26.4600009918213
40.467,-25.5500011444092
40.477,-31.3900012969971
40.487,-48.930004119873
40.497,-46.6900024414062
40.501,19.7000007629395
40.511,18.6900005340576
40.521,24.9500007629395
40.531,16.9400005340576
40.541,3.60000014305115
40.551,-11.9000005722046
40.561,-13.7500009536743
40.571,-13.1200008392334
40.581,-19.2800006866455
40.591,-18.4100017547607
40.601,-11.0200004577637
40.611,-4.79000043869019
40.621,-0.21000000834465
40.631,-6.40000009536743
40.641,-13.6500005722046
40.651,-13.6500005722046
40.659,-18.7900009155273
40.669,-26.810001373291
40.679,-23.6200008392334
40.689,-3.4300000667572
40.699,12.3900003433228
40.709,34.4000015258789
40.719,48.9600028991699
40.729,63.5200042724609
40.739,74.2700042724609
40.749,72.1700057983398
40.759,56.0000038146973
40.769,29.5400009155273
40.779,17.7400016784668
40.789,14.2400007247925
40.799,1.05000007152557
40.809,-18.3400001525879
40.819,-7.5600004196167
40.829,12.0400009155273
40.839,29.2200012207031
40.849,40.8800010681152
40.858,36.4700012207031
40.868,44.3800010681152
40.878,40.6000022888184
40.888,41.8600006103516
40.898,23.9700012207031
40.908,21.0700016021729
40.918,22.7500019073486
40.928,14.3100004196167
40.938,0.800000011920929
40.948,-2.17000007629395
40.958,10.5300006866455
40.968,20.230001449585
40.978,23.2000007629395
40.988,14.9800004959106
40.998,26.9100017547607
41.008,41.5400009155273
41.018,44.620002746582
41.028,38.9500007629395
41.038,46.9700012207031
41.048,58.7300033569336
41.057,50.430004119873
41.067,31.7100009918213
41.077,35.8000030517578
41.087,62.4000015258789
41.097,61.2100028991699
41.107,47.4900016784668
41.117,44.1300010681152
41.127,44.1300010681152
41.137,35.6599998474121
41.147,17.7100009918213
41.157,-6.51000022888184
41.167,-17.0799999237061
41.177,-20.1600017547607
41.187,-31.4300022125244
41.197,-41.5100021362305
41.207,-39.9300003051758
41.217,-32.1300010681152
41.227,-28.5200004577637
41.237,-31.2900009155273
41.247,-24.3200016021729
41.251,-77.4500045776367
41.261,-98.3100051879883
41.271,-127.43000793457
41.281,-141.540008544922
41.291,-149.130004882812
41.301,-155.050003051758
41.311,-173.070007324219
41.321,-165.160003662109
41.331,-136.320007324219
41.341,-115.110008239746
41.351,-99.3600082397461
41.361,-76.2600021362305
41.371,-41.9300003051758
41.381,-14.5200004577637
41.391,-8.85000038146973
41.401,-11.8600006103516
41.409,-10.8500003814697
41.419,-12.1800003051758
41.429,-27.0500011444092
41.439,-43.2600021362305
41.449,-34.4000015258789
41.459,-17.4300003051758
41.469,-7.35000038146973
41.479,-1.75000011920929
41.489,10.6000003814697
41.499,34.75
41.509,54.9500007629395
41.519,51.2400016784668
41.529,52.2500038146973
41.539,74.2000045776367
41.549,84.7000045776367
41.559,69.2600021362305
41.569,48.5800018310547
41.579,41.4400024414062
41.589,44.9000015258789
41.599,25.480001449585
41.608,-9.69000053405762
41.618,-27.4000015258789
41.628,-13.0200004577637
41.638,-13.1200008392334
41.648,-37.5500030517578
41.658,-52.0100021362305
41.668,-41.9300003051758
41.678,-21.2100009918213
41.688,-32.7900009155273
41.698,-55.0200042724609
41.708,-51.870002746582
41.718,-40.3900032043457
41.728,-38.6000022888184
41.738,-37.9400024414062
41.748,-26.8400020599365
41.758,-1.89000010490417
41.768,31.9500007629395
41.778,25.9300003051758
41.788,-2.13000011444092
41.798,-8.19000053405762
41.807,-11.0200004577637
41.817,-26.4900016784668
41.827,-57.4000015258789
41.837,-79.4500045776367
41.847,-71.7800064086914
41.857,-60.9700012207031
41.867,-54.4200019836426
41.877,-61.810001373291
41.887,-47.810001373291
41.897,-23.9400005340576
41.907,4.26999998092651
41.917,13.8600006103516
41.927,5.95000028610229
41.937,0.770000040531158
41.947,2.73000001907349
41.957,-5.74000024795532
41.967,-36.8200035095215
41.977,-62.4700012207031
41.987,-72.7300033569336
41.997,-78.4300003051758
42.001,-10.2900009155273
42.011,14.1400003433228
42.021,43.6400032043457
42.031,75.8400039672852
42.041,97.8600082397461
42.051,107.030006408691
42.061,103.980003356934
42.071,91.6300048828125
42.081,76.5400009155273
42.091,56.7000045776367
42.101,37.4100036621094
42.111,14.5900011062622
42.121,8.43000030517578
42.131,20.5400009155273
42.141,22.9200019836426
42.151,17.8800010681152
42.159,-0.240000009536743
42.169,-20.230001449585
42.179,-32.8300018310547
42.189,-51.4800033569336
42.199,-67.3400039672852
42.209,-72.5900039672852
42.219,-69.3000030517578
42.229,-61.7400016784668
42.239,-48.5400009155273
42.249,-42.9400024414062
42.259,-48.370002746582
42.269,-55.0500030517578
42.279,-61.4600028991699
42.289,-67.8600006103516
42.299,-73.7400054931641
42.309,-78.890007019043
42.319,-79.2700042724609
42.329,-76.370002746582
42.339,-74.5100021362305
42.349,-76.4000015258789
42.358,-79.2400054931641
42.368,-84.2800064086914
42.378,-81.3000030517578
42.388,-71.9200057983398
42.398,-75.9100036621094
42.408,-91.2100067138672
42.418,-104.820007324219
42.428,-123.830009460449
42.438,-134.360000610352
42.448,-134.470001220703
42.458,-113.26000213623
42.468,-72.620002746582
42.478,-28.2800006866455
42.488,11.3400001525879
42.498,32.1599998474121
42.508,41.7900009155273
42.518,25.8300018310547
42.528,1.12000000476837
42.538,-12.6300010681152
42.548,-25.6900005340576
42.557,-38.2200012207031
42.567,-43.4300003051758
42.577,-56.870002746582
42.587,-63.3500022888184
42.597,-51.9700012207031
42.607,-39.7900009155273
42.617,-32.1300010681152
42.627,-30.3800010681152
42.637,-23.2400016784668
42.647,-16.0300006866455
42.657,-14.5200004577637
42.667,-18.8300018310547
42.677,-21.310001373291
42.687,-28.0000019073486
42.697,-28.8400020599365
42.707,-27.0200004577637
42.717,-21.1000003814697
42.727,-26.8800010681152
42.737,-33.1100006103516
42.747,-40.8400001525879
42.752,31.8500022888184
42.762,50.0500030517578
42.772,64.9200057983398
42.782,76.6500015258789
42.792,87.7100067138672
42.802,88.5100021362305
42.812,75.5300064086914
42.822,41.9600028991699
42.832,9.59000015258789
42.842,-11.3700008392334
42.852,-32.6500015258789
42.862,-48.1900024414062
42.872,-55.1600036621094
42.882,-57.680004119873
42.892,-44.870002746582
42.902,-10.3200006484985
42.909,20.0200004577637
42.919,47.9500007629395
42.929,65.3100051879883
42.939,73.2200012207031
42.949,72.9400024414062
42.959,73.9900054931641
42.969,48.9600028991699
42.979,21.9400005340576
42.989,4.65000009536743
42.999,12.1100006103516
43.009,39.620002746582
43.019,84.8000030517578
43.029,125.300003051758
43.039,151.060012817383
43.049,182.000015258789
43.059,213.570007324219
43.069,217.910003662109
43.079,184.940002441406
43.089,137.970001220703
43.099,64.8500061035156
43.108,-27.1900005340576
43.118,-133.139999389648
43.128,-202.650009155273
43.138,-257.809997558594
43.148,-294.910003662109
43.158,-336.100006103516
43.168,-319.160003662109
43.178,-248.950012207031
43.188,-188.820007324219
43.198,-107.550003051758
43.208,-65.8300018310547
43.218,-29.8500022888184
43.228,2.55000019073486
43.238,43.6800003051758
43.248,71.9900054931641
43.258,29.9200019836426
43.268,27.7500019073486
43.278,29.2600021362305
43.288,15.7800006866455
43.298,-11.1300001144409
43.303,43.9600028991699
43.313,51.5900039672852
43.323,76.7900009155273
43.333,109.690002441406
43.343,110.000007629395
43.353,129.639999389648
43.363,123.270004272461
43.373,102.440002441406
43.383,113.710006713867
43.393,79.2000045776367
43.403,38.9900016784668
43.413,21.5200004577637
43.423,5.18000030517578
43.433,6.05000019073486
43.443,8.92000007629395
43.453,14.1700010299683
43.46,45.9900016784668
43.47,67.4400024414062
43.48,67.5500030517578
43.49,69.3000030517578
43.5,79.9700012207031
43.51,63.4500045776367
43.52,63.7000045776367
43.53,43.9600028991699
43.54,3.95000028610229
43.55,-3.50000023841858
43.56,10.8100004196167
43.57,8.05000019073486
43.58,-14.1000003814697
43.59,-43.4300003051758
43.6,-49.0000038146973
43.61,-69.8199996948242
43.62,-83.8200073242188
43.63,-94.2500076293945
43.64,-123.650009155273
43.65,-154.140014648438
43.659,-176.470001220703
43.669,-171.920013427734
43.679,-155.150009155273
43.689,-130.060012817383
43.699,-119.280006408691
43.709,-105.240005493164
43.719,-83.120002746582
43.729,-48.1600036621094
43.739,-18.480001449585
43.749,0.450000017881393
43.759,4.26999998092651
43.769,-4.58000040054321
43.779,-18.4100017547607
43.789,-22.9900016784668
43.799,-8.43000030517578
43.809,1.15000009536743
43.819,4.79000043869019
43.829,16.6900005340576
43.839,38.2200012207031
43.849,68.7400054931641
43.858,83.1900024414062
43.868,75.7700042724609
43.878,52.0100021362305
43.888,18.0900001525879
43.898,-8.1200008392334
43.908,-24.7800006866455
43.918,-46.1600036621094
43.928,-55.5100021362305
43.938,-59.810001373291
43.948,-62.8900032043457
43.958,-40.6000022888184
43.968,-6.65000009536743
43.978,16.7600002288818
43.988,36.9200019836426
43.998,52.1100006103516
44.008,65.9400024414062
44.018,65.3400039672852
44.028,61.2100028991699
44.038,37.1300010681152
44.048,8.61000061035156
44.053,31.7800006866455
44.063,41.7200012207031
44.073,52.7400016784668
44.083,56.8000030517578
44.093,39.5500030517578
44.103,15.6100006103516
44.113,-9.66000080108643
44.123,-39.0900001525879
44.133,-13.4700002670288
44.143,-17.7100009918213
44.153,-38.8800010681152
44.163,-47.7400016784668
44.173,-40.1100006103516
44.183,-10.6000003814697
44.193,13.5400009155273
44.203,26.810001373291
44.21,11.3000001907349
44.22,-5.49000024795532
44.23,-17.8800010681152
44.24,-6.44000053405762
44.25,-15.1500005722046
44.26,-33.8400001525879
44.27,-30.9700012207031
44.28,-28.4500007629395
44.29,-2.45000004768372
44.3,23.2700004577637
44.31,24.7800006866455
44.32,15.5400009155273
44.33,-1.78000009059906
44.34,-12.4900007247925
44.35,-15.6800003051758
44.36,-18.1600017547607
44.37,-12.0700006484985
44.38,-1.05000007152557
44.39,14.3500003814697
44.4,35.8400001525879
44.409,48.7900009155273
44.419,64.75
44.429,71.1500015258789
44.439,63.3500022888184
44.449,71.0800018310547
44.459,74.5800018310547
44.469,63.0000038146973
44.479,50.7100028991699
44.489,56.4200019836426
44.499,67.620002746582
44.509,67.2300033569336
44.519,69.1900024414062
44.529,75.5300064086914
44.539,77.870002746582
44.549,71.0800018310547
44.559,71.75
44.569,50.9900016784668
44.579,24.6000003814697
44.589,19.7400016784668
44.599,14.3100004196167
44.608,21.730001449585
44.618,26.4600009918213
44.628,26.1800003051758
44.638,28.560001373291
44.648,31.3200016021729
44.658,39.5100021362305
44.668,17.6400012969971
44.678,-17.0400009155273
44.688,-33.8800010681152
44.698,-53.2700042724609
44.708,-54.0000038146973
44.718,-71.5699996948242
44.728,-66.8800048828125
44.738,-41.6500015258789
44.748,-10.460000038147
44.758,39.5500030517578
44.768,82.2800064086914
44.778,104.120002746582
44.788,125.750007629395
44.798,153.370010375977
44.803,49.0700035095215
44.813,15.2200002670288
44.823,-11.2300004959106
44.833,-15.4700002670288
44.843,-13.0900001525879
44.853,-14.3100004196167
44.863,-38.9200019836426
44.873,-74.0900039672852
44.883,-123.76000213623
44.893,-185.18000793457
44.903,-227.040008544922
44.913,-246.080017089844
44.923,-194.070007324219
44.933,-95.0200042724609
44.943,-45.6700019836426
44.953,-54.0700035095215
44.96,-28.8700008392334
44.97,26.7400016784668
44.98,81.4800033569336
44.99,98.4200057983398
45,99.6800079345703
45.01,119.030006408691
45.02,129.18000793457
45.03,117.880004882812
45.04,73.390007019043
45.05,17.7400016784668
45.06,-54.1400032043457
45.07,-110.560005187988
45.08,-128.200012207031
45.09,-147.980010986328
45.1,-208.110015869141
45.11,-235.830017089844
45.12,-217.310012817383
45.13,-149.380004882812
45.14,-77.0300064086914
45.15,-37.1300010681152
45.159,19.4900016784668
45.169,55.8200035095215
45.179,77.4500045776367
45.189,90.5400009155273
45.199,97.0200042724609
45.209,99.6800079345703
45.219,74.370002746582
45.229,45.810001373291
45.239,15.9200010299683
45.249,-22.7100009918213
45.259,-51.2700042724609
45.269,-59.8500022888184
45.279,-48.3000030517578
45.289,-63.9400024414062
45.299,-75.390007019043
45.309,-46.1600036621094
45.319,-8.68000030517578
45.329,45.0400009155273
45.339,60.1600036621094
45.349,81.3000030517578
45.358,132.68000793457
45.368,178.530014038086
45.378,192.010009765625
45.388,199.18000793457
45.398,209.750015258789
45.408,216.120010375977
45.418,231.000015258789
45.428,241.810012817383
45.438,221.020004272461
45.448,162.220001220703
45.458,120.01000213623
45.468,82.2800064086914
45.478,37.9400024414062
45.488,-1.54000008106232
45.498,-24.2900009155273
45.508,-58.9700012207031
45.518,-82.4600067138672
45.528,-77.0700073242188
45.538,-79.3800048828125
45.548,-85.8500061035156
45.553,36.9900016784668
45.563,49.7700004577637
45.573,71.1500015258789
45.583,79.3400039672852
45.593,78.75
45.603,76.5800018310547
45.613,67.3400039672852
45.623,57.120002746582
45.633,61.3900032043457
45.643,55.8200035095215
45.653,32.2000007629395
45.663,15.3600006103516
45.673,19.8400001525879
45.683,21.3800010681152
45.693,14.0700006484985
45.703,13.1900005340576
45.71,4.41000032424927
45.72,12.3900003433228
45.73,15.4300003051758
45.74,8.68000030517578
45.75,1.99000012874603
45.76,-6.47000026702881
45.77,-27.8900012969971
45.78,-32.9000015258789
45.79,-12.2100009918213
45.8,-12.4900007247925
45.81,-36.7800025939941
45.82,-33.0400009155273
45.83,-11.9300003051758
45.84,-7.24000024795532
45.85,-22.6800003051758
45.86,-19.3500003814697
45.87,-12.2100009918213
45.88,-0.350000023841858
45.89,-1.6100001335144
45.9,5.28000020980835
45.909,16.310001373291
45.919,11.4400005340576
45.929,10.1100006103516
45.939,22.8200016021729
45.949,28.560001373291
45.959,22.3600006103516
45.969,19.0400009155273
45.979,28.8400020599365
45.989,34.1599998474121
45.999,30.5500011444092
46.009,27.9600009918213
46.019,29.6400012969971
46.029,30.5200023651123
46.039,22.7800006866455
46.049,16.3800010681152
46.059,16.5500011444092
46.069,-2.66000008583069
46.079,-13.3700008392334
46.089,-5.70000028610229
46.099,-8.36000061035156
46.108,-35.0700035095215
46.118,-27.7900009155273
46.128,-9.0600004196167
46.138,-1.64000010490417
46.148,-1.4300000667572
46.158,5.74000024795532
46.168,25.230001449585
46.178,24.1800003051758
46.188,19.8400001525879
46.198,35.4500007629395
46.208,37.2000007629395
46.218,17.6700000762939
46.228,15.5000009536743
46.238,22.8200016021729
46.248,6.09000015258789
46.258,-7.00000047683716
46.268,3.95000028610229
